ax,ay,az,gx,gy,gz,label
0.24835707650561634,-0.9539037789386955,9.252959320883457,1.530804312026699,2.3496281151713836,-0.28684643291785816,Safe
-0.06913215058559233,-0.43019250538975096,9.494534583131106,2.1468254048208903,-3.7579618895076545,-0.06531180748061988,Safe
0.32384426905034625,-0.20680276671082212,9.338969908212878,0.997379824271089,-0.6555901117549262,0.12858975717516336,Safe
0.7615149282040127,0.9438438286700952,9.536002090629431,-3.88499538192354,-0.08332004676266948,1.8937229232923598,Safe
-0.11707668736166799,0.2782765622668791,9.702924844644405,-0.3108448650555194,0.03181731679926216,-1.4944346169734872,Safe
-0.11706847847459027,-0.6677407845499457,10.228577243165693,-2.3114151498338305,0.3609921121561624,-1.6926939830253198,Safe
0.7896064077536957,0.2430181447088185,9.64942048064715,-0.4052115458361477,1.2208796396189863,2.4732394842859504,Safe
0.3837173645764544,-0.7736519944691828,9.017187146615203,1.960008472267788,-0.07081487809070172,-0.9252894837625965,Safe
-0.23473719296747605,0.5413455269435367,10.38003392324758,0.6103016717499453,-0.7361165642873614,-2.5260707071541324,Safe
0.27128002179298233,-0.2355623259089393,9.391454933192481,2.2961817327948655,-0.8151786893193912,-0.9702598841997401,Safe
-0.23170884640623113,-0.04681809436958542,9.780639786447686,0.6835078414270787,-1.2230316040767093,-0.6601054704880016,Safe
-0.23286487678512843,0.662898323771095,10.033268253470355,-2.5966518793378053,1.5750866486537305,3.10992545545153,Safe
0.12098113578301706,-0.643581784292125,9.909805209201393,-5.041694013145469,-1.2930569589530292,1.8496524247534745,Safe
-0.956640122328899,-0.6985590925564956,10.357089773760737,0.2976175233591807,1.6935422180164887,2.2950412332644845,Safe
-0.8624589162565164,-0.29179966317300243,10.04950157169638,-0.42785293270233077,0.03799816451974201,1.639947284693572,Safe
-0.28114376462048635,0.5191894255096583,9.379345210151447,-1.9538914787637642,-1.0425096137122591,1.8924873432306282,Safe
-0.5064155601672119,-0.7596730377384212,10.899281086995831,-3.401254499302756,1.2368144314882696,-1.3761642531606362,Safe
0.15712366629763694,-1.4160777990552844,9.907166731669117,-1.4694864269454184,-1.4549078494462364,-0.3972043107069687,Safe
-0.45401203776060545,-0.2255794292044994,9.736329886689248,-0.3889829697295521,1.2763680814564258,-1.9798306260470977,Safe
-0.7061518506676457,0.2758703999554602,10.291962711527786,1.3317556474127803,0.4254522423835697,-0.4209760610740667,Safe
0.732824384460777,0.6001308748694146,9.934725472965036,0.3772621631359601,-1.1926493781838414,1.368209981869482,Safe
-0.11288815024326783,-0.2315806810426995,10.009614096469663,3.2161344943454577,1.0572696306691183,0.2691665696244936,Safe
0.03376410234396192,-0.20571330355800121,11.056091999300344,-2.0712081120907886,1.0931794513772775,2.6229616379205902,Safe
-0.7123740931067284,0.5769503671278736,9.672439285872477,1.7621177841148667,2.3150392116199154,-2.2828315844544385,Safe
-0.27219136226259133,-0.9348708498477103,9.651119552991302,0.09459748625745584,1.9322940248185918,1.0004767013964795,Safe
0.05546129485493304,-0.19426038759150463,9.868289256006232,1.3893382482371692,0.9825480414525657,-2.496605603738636,Safe
-0.5754967887111514,0.09521194496252887,10.34575796779052,-0.8730297265310871,-2.2551819024175264,0.18835293834728456,Safe
0.18784900917283598,0.22460936064251713,9.056732984904801,2.1433607477811796,4.897173976348114,1.4806668451129577,Safe
-0.3003193449594025,-0.2549033465954413,8.827222054261748,0.5904495166904855,-2.8072324221436205,-0.42900513364843845,Safe
-0.1458468748966384,0.017220505852920676,9.516442364689926,-1.3588899698354988,1.898526348564618,1.1022532081739118,Safe
-0.30085330611469846,-1.2441636767064947,8.993038520470357,-0.024048057826376295,0.8625676337725969,-1.9194646696658682,Safe
0.9261390922544689,-0.32912420616692417,9.59758432623718,-0.47911171787419904,-2.3482847449622293,-3.327379956392766,Safe
-0.0067486123689669605,0.2267543562772337,10.061249848064646,0.9783567012755874,-0.24860187775699835,1.1140592449756062,Safe
-0.5288554644779502,-0.49114701712733977,9.364625568223868,-2.359553498749017,-0.15750577248928094,3.4880204681514653,Safe
0.4112724560515945,0.029492110794798687,9.09658671160933,-0.058703404231389096,2.611165431621047,-1.9920898803397842,Safe
-0.6104218249855111,0.223436250401349,9.844668580857675,0.7906145052986617,-1.426621800560423,2.4443883602135905,Safe
0.1044317975023777,-0.17127460042888248,10.241271742307585,0.06604661438606646,-0.5238900128487078,0.08684681763282202,Safe
-0.9798350619398878,0.08523188549828545,8.962513280741694,2.6938824887779913,-4.672139210042526,-2.671383043386152,Safe
-0.6640930244492153,-0.48136628264230613,10.220116199152992,1.548045548142105,3.4695255862471543,-2.263010602704325,Safe
0.09843061793456176,-0.10330563984802332,10.218653101869164,-0.01496159348149323,-2.1409364860401423,0.03156954672130011,Safe
0.3692332899977052,0.30510808479461127,10.287042551078315,0.4333781949953463,0.6538217284783499,-0.8089245758482073,Safe
0.08568414059498525,0.07848648048421711,10.419240107435844,0.5913311029639992,-0.2028156594437279,-2.625825953516478,Safe
-0.057824141194120264,-0.29326563478196777,10.91100696232981,0.8065992083336481,-0.19600193356667986,-3.38807856245081,Safe
-0.1505518477946444,0.1121082021453965,9.631953975690474,-3.651315991329216,1.61972396974175,-1.6934386558530121,Safe
-0.7392609951837137,0.357304895318309,9.86478579003893,-0.6030525915386943,3.342524920607269,0.3876180166622365,Safe
-0.3599221041973543,-1.024970639288739,9.601780783375988,-2.9688781363868526,0.5029873398839835,-0.012801505206276069,Safe
-0.23031938547989375,0.5795370324779489,9.810988422377905,2.556561894918973,1.3101560352610517,-1.0024759150001565,Safe
0.5285611131094579,-0.168127369340536,10.576436677818156,-0.12169904000585546,0.6577830734540817,0.40377438858296555,Safe
0.1718091447842307,0.21274496662011513,9.137492758034666,-0.3866818993592455,2.0350628478612527,2.080053439725375,Safe
-0.881520077681367,0.598623461822614,9.379475163917213,1.7935946640664704,-0.9258327589726543,0.7882530208682957,Safe
0.1620419846973975,-0.685836848615233,10.498590468252281,0.8446495948997493,2.150781108832828,-0.24261734277916133,Safe
-0.19254114020815827,-0.3547205012137733,10.320018253451046,-2.2572690287584143,2.220999731294768,1.8561440133213776,Safe
-0.33846100015297936,-0.1442743479378524,9.628434176591462,-0.1418107250547376,2.1650740173658196,-1.91970060443259,Safe
0.30583814442043394,-0.39187676056221415,10.237201000560361,-0.6703339464527697,-1.320295734672952,-0.4498390791107032,Safe
0.5154997612479755,0.8674682879184042,9.980607921246017,-3.489065777212108,-0.33667526847438173,-0.4021758712007363,Safe
0.4656400595580993,-0.4283860469133964,10.560137304500495,-1.3805524664744093,0.47893397756086986,-2.4739065168856906,Safe
-0.41960876161131927,-0.2777733897434333,9.847254796913386,-0.36708064403293117,-2.7416840896580115,-0.8397483245687155,Safe
-0.1546061879256073,0.10219451580148839,10.322816056936292,-0.2299018629836852,3.1898404161720295,-4.149919361790606,Safe
0.16563171570178198,-0.6010747630380444,11.13100595524631,-2.9644628473546173,-0.02455306700435177,3.824356095325907,Safe
0.4877725635611796,-0.19784035587813192,10.109049577523734,2.303331166094951,0.5678557752094432,-1.874827576872626,Safe
-0.23958711892264498,0.15872663062508757,9.834664082897422,-0.20420611778287787,-1.154008879454406,3.1722282628426237,Safe
-0.09282948833190856,-0.16643020219125562,10.17122349261049,0.07510615332112582,-2.6537551187340456,0.0761690114389849,Safe
-0.5531674870030141,-0.04669342944997414,9.627359570898058,0.8012832766796734,-1.208059770949542,1.1297282643119178,Safe
-0.5981033120403354,-0.26466605622418543,11.003983852762367,-1.5761525078073424,0.43840837526717685,-0.9775995967018631,Safe
0.406262911197099,-0.7572351545903835,9.900035518847991,0.9127119462653925,1.346857625507387,0.4158593839233487,Safe
0.6781200142854115,0.16079660566961929,9.673533339887245,-0.734149292036366,0.3235830812054403,1.300979279976872,Safe
-0.03600506079016692,0.8774665358236208,9.392155497489982,-1.793171081294383,0.6934480324839007,1.3291048287883644,Safe
0.5017664489460121,0.009200815391719065,10.35861009580322,1.1468949867107978,-0.6740527493627533,1.5495467801487144,Safe
0.18081801252381707,0.11263205862377476,10.24359370641387,2.9833477176036154,0.9924971324908562,-0.7366654200783527,Safe
-0.32255987730256214,0.3463613775584297,9.561322814292954,1.4496587469716635,2.965665732771814,-0.9607193449827102,Safe
0.18069780275420697,-0.6346652482733496,10.098225672561211,1.8459551302808617,1.4095788848779738,-3.188352650535207,Safe
0.7690182832329846,0.8512573290648028,9.055722015893572,-1.041261213124598,1.6190837765058805,1.0464380223538734,Safe
-0.01791301955497577,0.10116439821140101,9.902485287536578,-3.195239458336913,0.5880327986132621,2.1647574226468853,Safe
0.7823218279070031,0.8159284495445545,10.036378176038347,2.9802750441996824,-3.0063101391992038,3.2319633598358593,Safe
-1.3098725520448722,-0.3665164977619947,10.663664904779612,4.10902977880952,-2.0893330612624865,0.6103452691610155,Safe
0.4109512521876119,0.9090309612789124,9.424590598635655,3.085613547539364,0.9097516013276866,-1.5329595458171386,Safe
0.04352353411908561,0.38757774701739156,9.170823685598839,-0.6715718779594994,-0.02187810392017169,-3.3941922865789107,Safe
-0.14950367523293373,0.2765200429261792,9.36228601953748,-2.3092686774576885,0.879685772945656,2.083333466166701,Safe
0.04588038826775115,0.11701222717657397,9.14171574984254,-2.131365395639133,3.352846835688147,-3.592553133555071,Safe
-0.9937844573004464,-0.12426430903722469,10.478328678879492,-3.3674651352280973,1.4520719984586674,-0.6812081554875334,Safe
-0.10983594391875597,0.6002658292369363,10.584319647512018,-0.21475723682009074,2.5177724114856432,-0.4486136558872918,Safe
0.1785562857558732,0.07017993492402348,9.970108288974416,3.211355916164909,0.18936277894146009,-0.1389102757020387,Safe
0.738947022370758,-0.9835348517935761,10.420647472842575,-0.2833252637444865,-1.6144313549688796,0.07160520007168028,Safe
-0.2591351091368237,-0.5585932308535012,9.876979190290118,0.6046458006965498,-0.11573231842868204,0.2762951127351501,Safe
-0.4042468014465938,-0.09292287609637365,9.762444176149618,2.751193928608417,-1.6095036274382757,-4.830726524157059,Safe
-0.25087852179226827,0.15499949158277754,9.64348119047312,-0.8081906236647993,3.116589913544896,0.02931181974025345,Safe
0.45770105885103707,-0.02829424444994792,9.654804504311217,4.07106291343919,1.5807821530709392,-4.4591511482237545,Safe
0.16437555482984223,0.6094853948968316,9.036099221845484,3.9841888149949067,1.0410249932565592,1.4644361461819897,Safe
-0.2648801018835194,-0.9755509320193124,9.94212738180367,-0.26222267736096533,2.4718864044562068,-1.1102503116072242,Safe
0.25663371655667805,0.0717939682525801,9.789833044892978,-1.1550685280384256,-4.040112829046451,-4.314073450446701,Safe
0.048538774674020194,-0.9089896126935774,10.182680362038939,1.394476092780626,1.1762759026853191,-1.6284093547707517,Safe
0.4843224952664446,0.3798561477420842,9.856761748219306,-0.695049885037716,-2.6212915686087452,-1.1401506783693076,Safe
-0.3510265469386762,-0.047229357221001377,9.728648149215454,-2.3131104341346727,-0.014511396931322331,2.3813992351100093,Safe
-0.1638310732988841,0.20980498601205907,9.374403484996185,2.5624773070459606,-0.6234151849344289,0.39327548350049,Safe
-0.19605407656607882,-0.43194148029488305,9.846076618410882,2.43289477455416,1.3234732241938958,0.6888898887011604,Safe
-0.7317574740660593,0.6397324658288756,10.17911861540808,0.31102320752712165,0.45637457792191083,2.362443268441202,Safe
0.14806013853228803,0.5208623320294257,9.23833050445807,-2.5257295074563557,2.690234347223577,-0.19228857584897893,Safe
0.13052763608994467,0.2917721515059438,9.85373687684037,-2.4590525024347722,-1.2037943218652272,1.5083759220648065,Safe
0.002556728321230445,-0.06475862343172038,9.926521475764742,0.2144585768383055,1.4182287792665678,1.3677222278639838,Safe
-0.11729356668757346,0.28992864264756607,9.450967608190869,-0.9997420690100645,0.32444643379766386,-2.5729389871388246,Safe
-0.7076853710252071,-0.35344628399367445,9.516071847546,-0.6821858642832164,-3.270580540143105,2.945967155259659,Safe
-0.21032266138267952,0.42777782951035603,9.925305424383108,2.043926310120007,-1.8372329170460653,-2.840603560141389,Safe
-0.17135725826338474,0.8247404471619605,9.24328949085369,1.4663586348451154,-0.2997560670443366,1.8347332989556961,Safe
-0.40113863461080945,0.5353052799895931,9.984961857624697,2.756285360995226,2.2245848997834554,-3.0341460738112653,Safe
-0.08064285583300457,-0.36480123490370475,9.362322813170401,-1.9812464467545152,0.927446115114229,1.2024735763033465,Safe
0.2020254284072692,0.18070865863655144,10.341426846516608,-0.6863831373734239,-2.3350016477614286,3.7238297563003453,Safe
0.9430929506052651,-0.6465707718793239,10.97891387269415,1.5179633909202255,-0.2806324560943195,-0.42595731310042256,Safe
0.08728890641591948,0.28619515558783787,9.379621599149091,0.8961566820257835,4.03561289758606,-0.5127112857062927,Safe
0.12877519536138218,0.22530170643126943,10.077103931187338,3.0647607651752438,0.22244666968171606,1.2208799986336984,Safe
-0.03722295788308361,-0.934908169766082,9.446629047558991,0.8410734118081385,-0.6546511501447915,-0.658792911925086,Safe
-0.9593856076495207,-0.5808919219561819,10.330477086898895,3.696218208211105,0.983479281512441,3.636557407485643,Safe
-0.013256937724608439,-0.14156944837188357,9.177370795457392,1.0800356034462815,1.52678615916394,0.3843844989173914,Safe
0.03011510497051322,-0.15042987357041313,10.050293379213857,2.1243348951773204,-0.9123366949601182,-0.6403390164414515,Safe
1.231621056242643,-0.6047384677094026,9.373505516555324,-0.6470298935689143,1.005149548742874,-1.0805710557913664,Safe
-0.09618048239056126,0.19448936467609187,9.706507705450816,0.02857442376797813,-0.6577789933416185,-1.8658969403460413,Safe
0.15077367116680623,0.12573680447025604,9.294487362426347,1.8218888076789506,1.4386552036588767,-1.2555099735149793,Safe
-0.017355884852621656,-0.09713456598925965,10.221175235447877,3.2259563411861087,0.33938631594256746,-0.7013467873171929,Safe
-0.584339018809766,-0.37789575007918147,9.391509822780208,1.458473898621506,0.9639356541057844,-0.9752781469971601,Safe
0.5714114072575103,0.5243535632082817,10.085982129665915,-0.16634354386923897,-1.5183670923350088,-1.3163505482742077,Safe
0.37596651634338707,0.8277035565441476,9.637950985868834,2.7546700590566835,-1.6425727681457185,4.197682460704879,Safe
0.39551597352152346,-0.24178074192326854,9.752763814100568,-4.383957312559762,1.8909946093187895,-2.0601901529789797,Safe
-0.45469372739736946,-0.30608345857741037,9.883877953700065,-2.844469003013747,-0.1587927627709875,0.2932651752923495,Safe
0.7013971554680496,0.24560383270599814,9.429087664170575,1.363268447336778,0.570069484198723,1.185042019521744,Safe
-0.7009255313961404,-0.17901468987349312,9.915183556770444,0.02821671250624971,-0.6127908541730391,1.2602159911674653,Safe
0.29342854690013515,-0.06969860033161708,10.575167282177206,1.2110273022483304,1.797453548027288,-0.117214151564944,Safe
1.0952278129049893,0.3698265758623357,9.420952607083644,0.1288150448638841,-1.2156199600593154,-0.4814051436946192,Safe
-0.49526816256534417,-0.9546780437536464,10.395905071636923,1.1418913892077454,-0.27120247980176565,0.903094982479013,Safe
-0.28314886480138596,0.6591511624263346,10.559048816743893,-1.6288056419863812,1.5719856254062634,0.5330432999564014,Safe
0.04982568254382061,0.03634026216467067,9.40192250548598,1.1409721721593815,2.345935398328532,-0.5179176695350267,Safe
-0.2517378270580996,-0.2057465722810901,9.082472697454724,1.988829056415169,-1.0475185820533668,-3.1237571434488616,Safe
-0.7753317155330663,-0.04461707711072446,9.960980450085883,2.441101207862465,3.919367963911766,-0.935847444666495,Safe
0.034281487403013663,-0.018785322489740634,9.536296238616565,4.0271085892973995,0.6264833873872326,-2.2931003274149155,Safe
-0.5311518568630524,-0.8656006517224627,10.744301609581502,0.48819688700477315,-2.0858565236174753,-1.334319100132653,Safe
0.2367962153175908,0.747469113726618,9.827403770249916,0.5478221736943578,0.7381040971799361,0.0664464770339189,Safe
-0.4597121171169016,0.020662816135309233,9.408900295982411,-3.0463449283476955,-0.7659984289669154,0.7174722879932324,Safe
0.7749672025087697,0.2215010652236876,9.236420244494145,-1.06282280227685,0.8681369743663536,3.5609055025848124,Safe
-0.39162664616811854,0.4757748852870214,10.354952479545416,-0.3861641480132253,-0.08571249532067604,-1.0748127578076276,Safe
-0.1610307581028378,-0.5105812287801501,9.524408012957908,2.10063910455271,0.14854738038028958,1.5492512705503012,Safe
0.4067586086848349,0.23673594951761423,9.831914399730215,-1.2220022481792583,-1.8231867531722918,0.6119200488756731,Safe
-0.6154321582169776,-0.13382054544939678,10.287901372556242,1.5926800394976648,1.98012246143272,2.5919953412795795,Safe
0.11372996730206471,0.42338538760824684,9.567870824034586,-0.003243433926760247,-2.3122547343020643,1.152457439191252,Safe
0.653571377141214,-1.0636137101757477,9.787035585629921,-0.3543362302295238,-2.2175297908099902,-2.0169628545726326,Safe
-0.8037416172806138,-0.0495471501206345,9.801715795088741,0.49778793826651285,0.7347206982949733,-3.4460920585824626,Safe
0.0923169292661521,-0.3014103278919808,10.151662255758046,-0.7823127445056851,3.205688494355939,0.6225233993350097,Safe
0.12994139712421177,0.21613147531707774,10.105372167755164,-0.858074496185331,-0.7051861941288144,-1.0569019958007815,Safe
0.3909114358886552,0.23502209368410107,9.699943134372587,-3.409571811580229,1.4019446454079314,-1.9606274919011946,Safe
-0.618475355439041,-0.35381294741101305,9.841824530748259,-0.49590841465577923,2.1466803537270907,-2.535155409066155,Safe
-0.6602283065421382,-0.3560869320880218,9.624110494238256,-0.959936292297453,1.6293688745881383,0.321950995174311,Safe
0.2609707828084488,-0.05533268427866472,9.071193796540278,-1.031961978698159,-0.6224165783473629,3.01541539862673,Safe
0.14849233661659303,-0.4483211136576041,9.938800428699064,0.8337461251800807,-2.182093434388149,-0.8173446914120833,Safe
0.12524642517293827,0.42099184772606346,10.756095880416535,1.3172639055810194,-4.41509513134271,1.1805406221506445,Safe
0.17322410474848784,-0.18460360022372307,9.368140429654469,0.4643890092846552,-0.5256809989247865,-0.20453270043518504,Safe
-0.3400123607892454,-1.4534941096608207,9.423485145198649,1.990830380898949,2.3561747371243493,-2.578764178206786,Safe
0.11612684858050178,-0.18741102831090306,9.37463611417813,1.1511238516607303,-2.248331969523868,1.4696226870208347,Safe
0.14653623664934062,-0.5192719104219862,10.172295889361562,-0.5901123796112843,1.4004196950375307,-2.1893840880547426,Safe
-0.3571757090131839,-0.8156379077304727,10.03424272709822,-0.9257125714287595,-1.9003050601037443,0.04325326118712941,Safe
0.9328872555723783,-0.6187133191112862,9.730731153791773,0.6256444735336929,0.2121451527736765,-0.6830408300106103,Safe
0.23691646045589376,0.05470423591648503,9.350990469180518,1.1475342198038017,1.4155832283100354,1.7861548691313835,Safe
-0.5956517486013243,0.6643204141241156,9.856188395819963,2.7956886140629966,-1.3189908736768556,-2.1163019849413733,Safe
0.32827680431691486,0.15659223693249,9.027688936332098,2.3823460898801914,0.34096936139382816,0.7817398156039196,Safe
-0.4873408351136607,-0.30325169410786984,9.881713283428747,-1.082946013014338,-0.8301826734506574,-1.6795948146974018,Safe
0.393542301871226,0.22795209758535134,10.245762193043968,-0.20401256025452338,1.4102973178763534,-1.0222104246575703,Safe
0.579297789503702,-0.22954515510949589,9.184400431683162,1.34203560983554,0.4706343369692744,-7.270400455080204,Safe
-0.41034115917585523,-0.3473001845815723,9.043740861585169,2.135995556117944,0.11301534885853479,4.184197143235817,Safe
0.4816880646221609,-0.5771813341164922,10.59971894584743,1.8779389374095843,3.1166999202839554,1.1011138656524637,Safe
0.20639046346824916,-0.8759144033758596,9.504120180247709,-0.12775566566269336,1.3246122847366042,-1.534694971876329,Safe
0.411030079997245,-0.19496185327972265,10.377973922971911,-2.508045304857033,-1.3807037322525781,-2.249311376665988,Safe
0.9483964913269737,0.07902674496006593,9.733001167401085,-1.9978727524911826,-0.1717278015955237,-0.991297505758681,Safe
-0.12269405800143525,-0.04831183500744486,9.729022591529336,0.5452670286388286,-0.1517975701593215,1.433759069638903,Safe
-0.3768680821787448,-0.2079834639736793,10.029206349748323,0.6844511588486911,0.1606391452504238,-3.784169851169851,Safe
-0.44475721481276165,-0.47287303034839057,9.36800057162678,-2.19735874686877,5.04901855321499,-0.28316883858867625,Safe
-0.40790514248271914,0.30412309584248426,9.876248571747823,0.08913922177854326,0.7417037854219937,3.5412837449253467,Safe
-0.0385508547070521,-0.6585659599732925,9.619255292587955,1.2624487139435663,-4.071805140209552,-2.2678926719356083,Safe
0.17057598740832194,0.3880139569217377,9.149753278297485,-2.3024533150142883,-1.0855979434339302,0.16077007752730996,Safe
0.13834539966500953,-0.5011085094633624,9.9787410373632,2.209994403608829,-3.864744174991617,4.406619630515515,Safe
0.4135916245180119,-0.3762176186765175,9.678346096561043,-0.7550622971196503,-0.6595965140916796,1.2643032593815455,Safe
0.00650094593895351,-0.7333925953078385,9.731487585777646,2.515226225153302,-3.974620459452857,0.2518476409709103,Safe
0.7267670385786584,-0.25070107344281833,9.20491952829292,-1.066904891551801,-1.743180942136856,1.0132729098180056,Safe
-0.13232841661897804,0.48765622923898944,10.605700183881403,-2.053250965768358,-3.0414430592682398,-0.8017306700194047,Safe
1.3600845832948094,0.25781404422197823,10.248357093193059,-0.9162739796834392,0.7683203559349551,2.59926257060688,Safe
0.3128336738825031,0.48921105601401754,10.29207794208599,-0.1902962461546403,0.0010787252577572838,-0.7986600458004238,Safe
-0.4285787782081413,0.2610712729669679,9.657277648779159,-0.7769598135429618,0.6059246149974622,-3.918363217471954,Safe
-0.5354462490305562,-0.5518349142651846,8.94540855524829,-0.4320028431462267,-0.2091027771370528,-0.7826062078809197,Safe
0.24123620762159265,-0.16539461216377868,10.786458691244755,0.6679302993523807,-2.7885955004088356,-1.933469059753407,Safe
-0.11173139266292545,-0.39009956455873135,9.779451245997066,-0.34235873959279883,1.0270427385094707,-0.5623880243948586,Safe
0.357000247046046,0.6652874520195201,9.435600101989973,-0.13222478790401407,3.8444491205389055,-0.5181681181612617,Safe
0.23661881228677242,-0.5983943232131558,10.018400787241557,-3.418452798405192,0.8184251572130935,2.394846399609815,Safe
-0.03641445632843639,0.44684884469455544,10.39356039400165,0.7833960320209454,-0.851849198635132,1.3905854533287711,Safe
-0.4233968590342025,0.4464769350543846,9.798474721957268,-0.17840659538333595,-2.85613435221089,0.5265309751507932,Safe
-0.7574236123429323,0.9148101008580436,10.449287583969689,3.220585960965742,-1.8161339415199307,-0.005890822665190231,Safe
-0.22325747603351054,-0.20484329631474868,10.351499969258434,-1.8791303345079164,0.9060793131441179,-2.117716017715989,Safe
0.42819939716173616,0.35616107979008105,9.27180940629897,-3.616590656999029,2.14623605359875,-4.362350475331355,Safe
0.10704687206510198,1.1408259182694214,9.473104947170262,1.2361369878600839,0.5217323494439519,0.22632002278556634,Safe
-0.622869389355994,-0.3088208384668483,10.288768581639884,0.6930540366260008,1.5997745794119669,1.5892824071473177,Safe
0.086590462925591,-0.7675201237661798,8.453693718094781,-2.0168660410622916,1.4153564880544858,-0.21666776648917838,Safe
0.1926586898644184,-0.9400050169538818,9.735272153417506,-3.059497910008183,1.0130687827718352,-1.0697086455734006,Safe
-0.4419287181005665,0.35635601443066567,9.094584399187665,3.07479346136858,-1.3169471905225119,0.929004330428425,Safe
0.07686255297276395,-0.9415751040292919,9.571723099283238,2.8282207812135636,0.3478470239503049,-0.166664401248694,Safe
0.029104359222999948,-0.18615952646896142,9.6605899554854,-4.974913517412259,-1.6967556077642765,3.3714883839479226,Safe
-0.5714851489153115,0.21865659351948036,9.630877811046247,-0.9164460585130019,0.03485790591620358,2.465456684136569,Safe
0.17889368017414164,0.09258776841495703,9.533869373943697,3.3283841095677986,0.6617270621338238,1.919016114046659,Safe
0.2803922631841172,0.21272243209208613,9.261428175185593,-0.9521251155557339,3.3575676147737097,1.5154682284198076,Safe
0.5415256215876385,0.11114492790042703,10.955955633409344,-0.9812244680533053,-2.6194639487352642,-2.580334828902914,Safe
0.5269010260174515,0.6394329066566966,10.743731002080676,-0.5655186552587367,0.9630152619826108,1.3259874041051993,Safe
-0.6888346839785455,-0.4761581903693985,9.228967089871858,-2.2417939475363187,2.9624731832471896,0.7526519152931505,Safe
-0.4689125199575614,-0.33849756922926566,10.601058375651784,-3.4095514884560885,1.5176955316775929,1.2128494567823267,Safe
0.2575176336043299,-0.386329722635412,9.610267254763574,2.1050946214694974,1.665890885650083,0.9852189736261051,Safe
0.2568929754561044,0.4150959059313051,9.874593736665856,-3.6858738124953514,1.1753898037356243,0.9055251756961311,Safe
0.25752384315302396,0.4501992941975318,9.778363020051543,0.4945429042175118,2.5966689795508335,5.4017329390991895,Safe
1.9263657453273606,0.2256126596592541,9.480125679373018,1.7731589855152992,-2.174956336224736,-0.15237133990383808,Safe
0.2854452553465835,0.5917468334449639,10.301926171803073,-2.902452597802317,-2.771853331940493,1.8726747616586605,Safe
0.5677828200902995,-0.5890204336881903,9.87294326528833,-1.8485368051901432,-0.012668280930511923,-0.9419796205280064,Safe
0.47700088174660116,0.8336120557755685,9.57172428839038,2.42635837678318,-4.32232420714342,1.5812831677753438,Safe
0.325695625652899,0.7616193108561291,9.157705278099764,1.0657834404540798,2.4612916083560226,1.8786397804649109,Safe
-0.1576346223201728,0.36781099862287336,9.36320249314044,-1.2345714137577743,2.4414303909908828,0.7288521542706958,Safe
0.3794846102466337,0.89089945438553,8.989309942198952,2.404498006722342,-0.8667011101690524,3.338493884753,Safe
-0.3864126072687859,-0.8283116038388869,9.816111774207585,2.4130714469086048,-0.7415411933210193,-1.768552072720835,Safe
-0.11840930337000444,-0.2622240681313259,9.211667203857802,0.5381053860314142,-0.1446949503013427,-0.9744418833364442,Safe
-0.24268177391455173,-0.36765173034097615,9.67721974374073,-1.8003204557473258,0.1040413008792395,0.4247601720469792,Safe
0.04093706969316128,0.3607396618786716,10.495050926805186,-0.8268974069435906,0.2543478383885708,1.761613706968444,Safe
1.1573292833367543,-0.5250703698010728,10.409649786460793,0.5727734879107803,1.1164642137566063,0.35885904258986645,Safe
-0.933632596295874,0.37874757466874276,9.793861552948691,-0.37718965829497647,-0.34525270601695623,2.571518073021132,Safe
0.34313009518725673,0.6852680719983567,9.766457636928426,1.8779143564697027,1.886386606955588,-1.3233797419326387,Safe
-0.8063579355948258,0.34760145004199966,10.749937274710504,-3.0595481602186725,0.8918955542506066,-2.281156978977109,Safe
-0.23596593289471673,0.14187551183075056,10.070378060179356,-2.9885270581324774,-1.213926891745271,0.6162566730730092,Safe
0.544475298483683,-0.4939366704503746,9.646096770061739,0.36174222296486486,2.670225335608195,-0.15436055222739264,Safe
0.032140009547731385,-0.4234254830626823,9.096990941439774,-0.9830888276138091,-2.716513972244974,1.08572744071644,Safe
-0.5388723889646531,0.6248094526483333,10.006936609082372,-1.2540972293954817,-0.18433162164295297,-0.054804581733007875,Safe
-0.3576518546299841,0.3896745019526662,10.224661886291432,-3.5361134383487944,1.9338348021509357,-0.6800395812469141,Safe
0.3397988744673379,-0.01950975968877206,9.494174237743179,0.03909168959636351,-1.4461462098242892,-0.14987514344744698,Safe
-0.36518331585856834,-0.20895477288294528,9.955601377569018,-0.10551021600153132,0.6191112935343029,0.05769778958636988,Safe
0.10822929479098743,-1.0129039365556884,9.628213352542486,1.3069579639034814,1.086679193998096,-0.6099625996966608,Safe
0.022785919951906892,-0.5354262093422194,9.7179838004005,0.1378122662419442,-1.721047735962478,-0.40626409264685626,Safe
-0.32580017380290854,0.9557095435698617,8.566088971218836,-0.2652081564809935,-0.14495543918807013,-0.8071866739738203,Safe
1.0719720446626628,-0.6402277855012334,9.699109298141932,2.3540012735806743,-0.3130076604184203,1.713330239738813,Safe
0.3169595111590056,0.09473991061054032,10.294684651204028,-2.6249346068971,-1.1034757036645857,0.3880420090115986,Safe
-1.0125712933288036,0.5037219865975993,9.49429872221672,1.0727784376951524,4.603349704101549,4.513504944337533,Safe
0.09322715738471382,-0.6274613340011462,9.836263184107658,-3.3422943295906977,-1.5262127068909515,0.3214091025569237,Safe
-0.330893232384194,0.09235523739054165,9.43202464665404,-1.6767237600016154,2.0098605881357665,-1.1017149406573234,Safe
0.426216667398112,0.4689577687553275,9.990220838146387,-2.4253142652466275,-0.7856020337622839,5.341350749726129,Safe
-0.3962603692163503,0.006249660953625167,9.701738401231914,1.5638850709038365,-2.1732723777705636,0.8272527554286707,Safe
-0.05736822073344951,1.4342015278333842,9.340379229658996,-0.13082046719078802,0.2056284863101378,1.9802495737856334,Safe
0.25249363949022857,-0.8342996294390976,10.476275733832564,-0.027006489185953504,1.2981867687750015,1.184205966404983,Safe
0.43287759708506074,0.5293642649419394,10.274466006766108,-2.213465975458902,1.8410191501313575,1.2460220585954973,Safe
-0.6001482035278881,-0.08640086869823219,9.507546618035914,-0.5993869918657784,3.1245302213101387,1.0713081027049485,Safe
-0.1672506179204742,0.38596007741833754,10.05889415470889,-1.5269306066182233,5.8904925798702,-2.2041691295521306,Safe
-0.2374726555804781,0.22065357584962292,10.078706001410191,0.766910029708432,0.5010284075111943,0.7350580951228239,Safe
-0.32666461628685595,-0.3665780985549983,10.131150617505588,-1.9821822706632273,-1.3261843476507758,-2.649722607700478,Safe
0.8827271201405484,0.11449819622967013,8.962872052002462,2.6595887304101518,0.9057486535897824,-0.3487256728250685,Safe
0.20249085548047777,-0.9289507256991436,10.313303270516315,-3.351160899248189,-0.5324259008129832,-1.4512349131265745,Safe
-0.6304419771675226,0.3016237502856969,9.525150518537135,-1.6130396649131227,1.8519322597044596,0.7149403716974481,Safe
0.45893097352738804,0.14907923299526282,9.631086033279367,3.3544010199321925,-2.5943285927314435,0.6682524946764693,Safe
1.0610780985063166,0.3193300843215512,11.1289408761301,-0.8702774959240688,4.736669084800875,0.9622917815303735,Safe
0.5162326302755734,0.5290591625435751,9.960936690360507,-2.629757328808824,1.7120961895510256,0.5745931454981743,Safe
-0.7596849829770067,0.18380992010485545,9.616838762276412,0.4381431250753373,-3.368008035592329,-1.2136506835727976,Safe
-0.24211703643312568,0.0740447098991381,8.707352813622048,-0.9507844844290845,-1.4180578046299444,-0.5220069787033592,Safe
0.6334555745933114,-0.4405341683306461,10.504882066973178,-1.6717405112366117,1.6321620882278776,1.8407923225089697,Safe
-0.3538347328093904,-0.3561103818245255,9.137395164595699,-2.191741621597435,2.3526881123429093,2.1357133545887996,Safe
0.22190971407311422,0.5933673100886655,9.308280548250249,5.536747211251886,-2.5444752544639266,-2.2935661972530985,Safe
0.3873170267146684,0.7181677028529893,9.644323850456075,-0.5031038003682727,1.4260517008658977,-3.061855265025293,Safe
-0.4634652357890415,-0.11905521815602703,10.518205895850146,-3.8511347206657542,-3.8946797453238466,-1.4537787664094242,Safe
-0.02976267803090004,0.02300137362663706,10.196619993332881,2.9874195180110683,-0.17867173094209196,2.0904151640645012,Safe
-1.6206336700345363,-0.45230718749688303,9.73108124507987,1.2221418102211414,2.2240936842064127,2.4297680603660687,Safe
-0.5121938206671449,0.5863784226337224,9.96414603181941,-1.5329328620395755,-1.103031460205961,-1.8494237608023432,Safe
-0.12628407569658015,0.33270841184588934,9.509807153564447,-1.8662381773722834,-3.013844598276027,0.6146187074726766,Safe
-0.6238915909824247,0.9706087182318746,9.879826844782675,1.3469455923164615,0.2924295927551186,3.6688626662801753,Safe
0.8162056519658176,-0.43916153858986945,9.846668372389068,-0.4938366549789093,-1.2094377332709563,0.8306229544806676,Safe
-0.7150706889803163,-0.1890039495091086,10.294384947840678,-3.8519556368902026,1.2591167321316714,2.843006570466187,Safe
-0.22002224334849188,0.11572296126278615,10.293589061219475,3.5744799292093368,-1.7706528644361208,1.9974531401661968,Safe
0.06537028864304567,0.32324476886288533,10.056988691102823,-0.867980924431914,-1.5452737793062006,-1.8203974124558215,Safe
0.7206366445330578,-0.10783381877381616,9.62882622122695,2.9911434729648527,-4.042004641752487,-0.3799628469941563,Safe
-0.7179310755897197,-0.4364805452268502,10.180911147195063,2.55686991593143,0.3398894221029657,0.0695089565836958,Safe
0.5815818760774798,0.44070376446178555,9.764015766898478,-2.0020190889656284,-0.3218098765531975,0.20826677604268004,Safe
0.0051165305097935244,0.3605676812727908,9.269042815643434,2.0663797287262957,-2.376769341480142,1.8326579068771425,Safe
-0.49075432552397547,-0.45813705028186247,9.608356104044532,-1.3028850997273624,0.387597427534184,0.817369524550817,Safe
0.23105173713163538,0.6777214005527479,9.852263491892163,-3.733401173607884,2.054140601288278,-5.87240188755623,Safe
0.09952984778673502,0.5850993545983019,10.265107891832374,-0.849196332044285,-0.43113588683789966,-2.625680546185452,Safe
-0.30010843857939734,0.06714824862389644,9.718235913921424,0.795275003552558,0.5363338996439475,-4.374761829952086,Safe
0.03490104249500946,0.039798931188018194,9.205400644380198,-0.9254732959926758,0.5466224991703283,0.3507304813106683,Safe
-0.1926567984308801,0.2770288855579536,9.83837084164841,-0.6140966818502029,-2.408659654357921,0.4809752989355221,Safe
0.05675867262562402,-0.43085153512812907,9.866728020028276,2.287132089857226,4.1131716414151915,0.5664499172214369,Safe
0.33106533726052334,0.015015739582041086,9.902918814451377,0.21298796058018368,-0.9416996602445677,-1.9178565354292325,Safe
0.793008408072676,-1.0761917723045902,10.269935757977215,-1.686596622569905,1.3122324037205415,1.3482880102399784,Safe
-0.6189077494134245,0.43822782275146777,10.31946162004495,1.404060647334653,1.5384305544580992,1.4325249929370583,Safe
1.0665166873281333,-0.7807466112209297,9.512894563809168,0.3953511339084903,-0.2791902542315035,-2.5102981344103155,Safe
-0.9760438997612509,0.7517099142144995,9.50192827097553,-5.043209602924086,1.2135900501192693,-2.9320764028977444,Safe
-0.07589254751779166,-0.16506004698322516,9.289900644522264,0.8567058275428974,0.49163844363277825,-0.0002633724538757172,Safe
0.29415860324228826,-0.10583349096558844,10.15940783514024,0.7836574154322032,-2.835279514454812,3.583564547226718,Safe
0.14049593386751633,-0.3138669530422528,10.534410054168859,0.04024225916171997,-0.6645454025001765,3.399485484397285,Safe
-0.3113497599102969,-0.1440194369610382,9.652459036045538,1.7834011621391503,-1.2251018047081237,1.1268087208961048,Safe
-0.10406112517863761,0.7092656725740183,9.689284717637504,-1.3447871686530044,-0.9234900826922542,-1.4599933431601528,Safe
-0.2465004673294164,-1.2439043282675397,10.543391278449489,0.6729995776418017,-2.6080063556732758,1.7736853189771702,Safe
-0.29468237847210577,0.6384826930440939,10.062778926607505,-3.1339187423347057,2.25286743349206,-0.9048485296180829,Safe
0.4248010485105123,0.16901174055085408,10.028117852400529,0.8141807667976636,3.203985309226826,-1.535014073347621,Safe
0.17850774298252367,-0.6035108239286078,9.214541747013136,3.906119391079793,1.9560059519968174,-4.287933663243988,Safe
-0.3464547976303271,-0.5376561965246189,10.14936403463971,-1.9897127049350822,2.5410584482942857,0.2047643966953058,Safe
0.44979993771662535,0.8381965136041015,9.345431829745122,-1.5196042639755505,-0.6892696740163123,-1.2597346982747504,Safe
0.15364976043830467,-0.4727534399713656,9.242989907032522,-1.4200308857831045,-1.272513669972073,0.19286075905700883,Safe
0.40643105941948005,-0.5766752552979797,9.636614211616644,0.25999645160319057,-1.557174093623423,-4.598715392474123,Safe
0.3148144209618061,0.5686572711823646,9.517103638275655,-2.1260725457074363,1.2881298459144452,0.33965334516737444,Safe
-0.41449750546103614,0.16927643814295712,9.699200152807482,0.8424947573819603,0.45412610628829925,-4.862242327943256,Safe
-0.2800905200984848,-0.4689627882681994,9.08950918273754,1.6936798909383304,-0.15444342319685142,2.175880506537104,Safe
0.3736468025616309,0.1083124877023095,10.289408153233836,1.0686944269075687,2.590297088390686,1.0437824682701689,Safe
0.3051851327167324,-0.5128763418201386,10.373843147258215,-3.536830851276145,0.809882707630686,-0.5573295428491756,Safe
-0.010450796982074066,0.5504106992113026,8.836328762929593,1.9903353303172122,-1.6773152750411695,1.1254397201641584,Safe
0.058663691654391,0.5306854824365668,10.299228902833276,1.8747348285073597,-1.3618176582713895,-1.9561485253271047,Safe
0.6388324478942125,0.26600309941097156,9.404735685089188,1.6603227446926088,1.363986598508291,0.14475103122978486,Safe
-0.29578569441791497,0.1808305306235083,10.238487768491394,0.74568449731165,2.083465705309194,1.5895480769206713,Safe
0.27354869058501896,0.8805940624336869,9.775776753666793,0.4403786284102656,1.103360464511939,-6.188578498182779,Safe
-0.10109632621694703,-0.00015683630588735604,9.8243877820405,2.0647787962527935,3.7937774957441626,-0.8944487193550476,Safe
-0.10884060161361014,-0.5909370627104006,9.71745117528939,3.847026975206909,3.270014331462838,-0.04528826027274856,Safe
0.549388425993595,0.22473695641615343,10.416064602116744,-1.9060809267296996,0.8820716697015257,-0.3925872354915331,Safe
0.4127081744940149,1.0430235247685569,9.190205993737486,2.1562507915895437,-1.6771613189630046,2.9142036524548103,Safe
0.40675481800031926,-0.5073797465929261,10.113920169367505,-0.1724341960149055,-2.6199750234635353,-2.247802249845769,Safe
0.6527394035771645,-0.18073138334699287,10.360665082444775,-0.2593461040572014,-0.7747634900294297,-1.242318486890458,Safe
0.010501920816379524,0.20822301905072632,10.168170040270207,-3.0730613807640768,1.506426892832314,-3.8317380526168967,Safe
0.34097648564748195,-0.02695242450286958,10.972349457161709,-0.5695788190307901,3.6532941586238756,3.020573302546291,Safe
-0.15513337829672802,-0.4911517901886573,9.545526618637652,-1.9945299159368308,0.8348940688215997,-0.4925802852176,Safe
0.16208317624422106,0.5609289281152354,10.288652411296766,-0.9277088590118914,2.337445588462473,-0.876817776073414,Safe
-0.06507152718384229,1.1600203610086297,9.75695468232929,-2.1963727675562996,-0.4906149723756047,-0.1049653646214281,Safe
0.048497982496359095,0.09806572951195366,10.426703038176335,-0.8978167746260127,1.2455382504551002,1.2724716568606482,Safe
0.2975785127184568,-0.45203414486800014,9.806155502139315,-0.8122207140468065,1.6467136589543452,0.6947268070322494,Safe
-0.40911034161673626,-0.7744802625267375,9.616062109068766,0.19350983687760062,-3.9591885517050565,5.295768427114175,Safe
1.0461936378427301,0.12898799061059044,10.463036101935815,-3.229499724582662,-0.8268776047530205,0.9078717768075492,Safe
-0.503008690749851,0.5519386716581288,9.564219030490536,-2.891036295490647,1.8994007685557395,-0.9304908583381621,Safe
-0.6070943063938661,0.2375838732476908,9.103637120549722,0.7238285414610531,0.5489366712731298,-1.1227134750478942,Safe
0.5790554367500339,-0.001201920459426922,9.551576558413085,-1.5948762341401979,-2.393030096301866,-0.7855179048336183,Safe
0.39583134698146794,-0.2946358258946531,10.119516473294267,2.1490595804598622,-4.8602447514547125,-3.003673849259676,Safe
0.31205990852607757,-0.5460818163590448,10.506019375793546,0.4505394440300934,-0.7315614906040128,0.07972841498317212,Safe
0.31417275463213995,0.41737566316244107,9.865564687648256,1.2135243004128147,-0.1431713857877581,1.5669362124178343,Safe
-0.0061233864234573115,0.4568858106927928,10.469098533617013,2.8213846408417895,-1.7678458996566908,-1.2267272012464718,Safe
-0.44862718574291577,-0.7728648933453666,9.130912539261203,-0.6194216236131451,0.2861698740559888,-1.6147601125682232,Safe
0.03790227909686317,0.7949194890903419,9.588368267591049,-1.1489734108325513,1.0127734944657893,3.0318902925884674,Safe
-0.33858085575605584,0.28703561044700066,9.66571244142295,1.7434051711976268,1.3413743414524657,-2.85296631324233,Safe
0.4875598667088756,0.6997973225728967,9.75272028626374,1.0190271278593719,-4.7118378498646445,-4.1356367529546025,Safe
-0.07352869075106933,-0.6710638742425575,9.852047194125099,-0.3746606196426017,-2.6285701956162404,-2.3058038872947653,Safe
-0.4127485983962558,-0.6829120777077194,10.155455478696098,2.7829159339118843,-0.6092452967094711,-3.080865434248593,Safe
-0.16069292082649672,-0.07448465488364846,9.587596580914756,-0.4244886196798611,1.144346262074927,0.7724521282091636,Safe
0.20646572713781217,0.2513922134475971,9.879514343476563,0.06554727511156286,0.9784680271000711,-0.7214090008991471,Safe
-0.28186227640198736,0.8981804114634818,9.787438554837975,0.04244530166851681,0.9437398957533516,-0.43937409004767974,Safe
-0.4111101977832157,0.3530394569075658,9.347055048054425,-1.8691877897969422,-0.7668358839378636,2.3058683539495464,Safe
0.12184360574595615,-0.12134063840601667,9.753166655459284,0.15517077897278192,-0.6552668746199215,-1.3826697223255529,Safe
0.12248328555436139,-0.5131846038329461,9.738170235051442,2.7935203547969825,-1.4566585368434815,1.5501788234912814,Safe
-0.2534715876855649,0.615000286359575,9.727459717498478,0.8899366307523516,1.5363882562116957,3.022645598406406,Safe
-0.2355191528091614,-0.4823527128753574,9.825879728290726,0.062126852797862876,-1.8409775754791564,-0.9113249960273213,Safe
0.11602496867881815,0.8142342773861608,9.847836770306694,-0.32353456233133804,1.7000727903791397,1.4740457111126273,Safe
-0.7240421707486621,-0.14219232480325467,9.593852410446335,0.6617340568127025,0.41570647627529217,-0.4836358250579602,Safe
-0.7037318871882776,0.7952910363089252,10.446357366985634,1.4995332569783701,-0.09008895691030717,1.848196257681578,Safe
-0.359222110626218,0.33946564502963916,9.225259685398493,1.218477661779506,-1.3134207995529332,-3.142978375152546,Safe
-0.10672357585592362,-0.06849774472122913,9.449514945765053,-0.6637297236439583,-2.7110837223282527,-3.2910244902506927,Safe
0.1554537827990023,-0.2596981859130633,11.199981812111778,0.6495631882202291,-1.2953055127560913,-0.7825354298150815,Safe
0.737678108474776,-0.1704539386730399,9.291004322505385,0.9598794822965573,-0.6600137372497726,-1.7778496181195413,Safe
0.4288298116010097,0.21415834618761875,9.133122662645121,-2.0143899750539567,-4.738048623162503,-1.0334182188597707,Safe
-0.07996926498171356,0.03857824810885837,10.177238372500609,0.33646108236738875,-0.39471031066932855,-0.4390531648942797,Safe
-0.009508103951344415,-0.29690570403435257,8.771440073113064,-4.322607772604724,1.848714736052011,1.4400270636725034,Safe
-0.5012646823189044,-0.08281570515881612,9.692363045013781,0.9650674196423701,1.134435810867745,-0.8153211571318698,Safe
-0.009256567996194965,0.0392885148595749,10.882912462538245,1.3206861091253632,-0.9924117514830149,-1.6477226212461733,Safe
-0.14432931946006916,-1.064367047207406,9.0375320389233,1.4950922515729188,0.09387259683045544,-0.7030267535177978,Safe
0.16135928016904474,0.22908405739434934,8.819017757130643,-0.790093704339135,-1.1123291388439993,-1.5382905596132355,Safe
-0.4136154717761615,-0.4898606123584034,9.060409399021152,0.6180936700480696,0.29752146667139223,-1.8680110041254288,Safe
0.25967325712058614,-0.5766662016028725,10.259179784173494,2.8479076910823338,3.080215647488063,-3.2260336271539383,Safe
0.7663694565012888,-0.8436721735553552,10.372388359992907,2.8275392965825175,1.936997605249752,0.13895623244215727,Safe
-0.0543800742284288,-0.8969462489339451,9.553705601510746,-0.058345398453121255,1.0415886113855055,-1.1374114131941069,Safe
0.20085586104947073,-0.6777237515561446,10.151606202000535,0.27863926145911966,-0.9857698247674366,1.9325574784693433,Safe
0.34507199585555626,-0.3545104788152452,10.505127663755996,2.221822289468866,1.499876785889677,-2.894792184117881,Safe
-0.20061023594291813,0.9766295687632841,10.703673207214914,-3.0016040305243497,-3.373753902746106,-1.0841671100957577,Safe
0.11204624090520839,-0.26293983794760195,9.686832359410076,-0.6461514853540491,-0.504706963981781,3.6258144413174977,Safe
0.00629620039089743,0.08887505313401567,8.659264141165007,2.671140911073513,1.1674228396478998,-1.879219034195699,Safe
0.04883804927441586,0.20024069325316435,9.399560538795157,1.9504010833695322,1.4808424280955028,-0.47306650419224794,Safe
-0.38650489192773324,0.06553259310792436,9.596597902532372,0.7385275552998093,1.339768980431482,-2.431687965650737,Safe
0.012255087129471357,-0.03872173036299682,9.680530601710805,-3.011664810661241,0.589661378419389,-2.696855025561962,Safe
0.24899914562272488,-0.5976468817996223,9.716070299495641,-0.09982046608232403,-0.39144995816776584,3.0946219661753567,Safe
0.7255718038975209,0.7254637741396059,10.369447298965335,-1.179830792499866,1.0759519396529778,0.3420789852742945,Safe
0.47963541304260343,0.9035983218189426,10.447214213343791,0.662077805634427,-1.905722081172601,0.26735767647524666,Safe
1.0765912287557782,-0.8413293470613429,9.724163173037608,-1.6186933695897605,-1.6893545265864998,-3.3926324702324444,Safe
-0.38367378144402475,-0.5120142954431898,10.359242438025909,-2.051446789949215,0.12346935292059345,0.7174827762166059,Safe
0.4361603183603391,-0.13990517118850304,9.988830683315545,-4.129730555367283,0.34639528541749476,2.3148438919876515,Safe
0.09167100286917587,-0.48226889745509566,9.842252986431287,2.443609369953403,-3.651230357129293,2.2989541216570593,Safe
1.0949014666088361,0.2529827767279326,10.263272078554982,-0.799541022886115,0.9102927618990371,1.3366664592123216,Safe
-0.40414914267757573,-0.36413610120330653,9.84612602411896,0.31429156740506903,1.5454567558387866,-2.258971155190808,Safe
-0.41986092109038803,1.0825280339033012,10.838905588548881,-0.004476232948362187,-0.15457047493259063,0.6262468343859833,Safe
-0.2996963227220111,0.595274297171798,9.090794416602721,-2.1348678659209988,4.7489325665679845,1.3351699209532153,Safe
-1.0619478621549034,0.10628701531610744,9.552414550453992,-2.5181298228963866,-1.3658702126303723,-3.5888871701778027,Safe
-0.2628775108403805,0.5134931316598661,9.746740551523025,-2.010630251994471,-0.722174326773739,-2.2425591829635696,Safe
-0.379566330776849,0.5529502121786545,10.029726345228996,-1.446336877658786,-0.7901338122544187,1.7763146434868833,Safe
0.07519689323810382,-0.2819737440291216,10.443980243551545,0.7332124940276099,-0.1523752225820351,1.752091553343857,Safe
0.17087798788857972,-0.4081086222709824,9.797800716381921,-1.591435327041223,-0.6574496259325822,-3.0971660672427848,Safe
0.9380854196079431,0.03907153148482372,9.098885175246897,3.492981263189243,-2.8136210892097435,1.5900429185383451,Safe
0.4752119190930251,0.430818062248972,10.231256948227502,2.054302071786302,-1.0930965924729508,0.1906067983072356,Safe
-0.28845182783120155,0.06953019932670883,10.187479383070983,1.6167190993314167,-0.19524139154815218,1.562017909214303,Safe
-0.449207335674179,-0.7884982410954986,8.839070670310297,-0.23931780494630028,2.457144164123995,-1.2690426468678828,Safe
0.24595958575325286,-0.40141222197542115,9.808097933164602,3.0285614714409674,4.404486546745827,1.290366992961804,Safe
-0.6601166035103211,-0.036986431797189016,9.014929084659851,-0.43601126224224807,2.6709477957013092,1.687657548971249,Safe
0.9157293829271769,-0.03783280216291513,9.47767445124897,-0.06252282830849215,-1.5507580593452128,-0.7026698709114234,Safe
0.5897200603606435,0.9862710883949041,9.358595536518601,0.3399490794985388,-1.391619221252331,0.03550509234657202,Safe
-0.2345878260523524,-0.692993971199499,10.214632349120993,1.403646081086688,-0.31865715501870195,-1.297043259009307,Safe
-0.8565672645454387,0.2527946209179373,9.868415087086092,1.2738161580059708,3.5691177777071723,3.3032778973717587,Safe
0.6769361870827064,0.7445565541641448,9.167204499621986,-0.9502505568892065,-0.3308481043637868,-0.2405438786515319,Safe
-0.05726992262630894,1.135724872711398,10.250032981478672,-1.0659874388519075,-2.6550149810748613,-1.8440486503543638,Safe
0.6189081559867309,-0.20219871159198063,9.093097088035794,1.279805914304169,-1.0023542739060702,-1.4316518277495003,Safe
-0.7972138293971835,0.2457147263600999,9.975056895235472,1.4304731677824654,1.514112003638834,0.2535412022842263,Safe
-0.29968751147688644,0.28488017859932346,9.402994665354223,-0.7867022496457456,1.3798805537921737,1.5066623435564235,Safe
0.002621849859091583,0.09774086577664541,9.62716145873474,-3.174376139356908,-0.4004333329833122,-2.6716536903010435,Safe
0.023490296882371028,-0.04942260061965303,10.062135374019192,-0.41463219201648915,1.3668293471200612,3.6953200058848976,Safe
-0.22503273573962182,0.21798769475002294,10.070724699529766,1.2470515976517174,-4.546344405093664,0.6173505881112328,Safe
0.3114249661737494,-1.2661230426098427,10.47848453677798,3.6108336928395612,0.20765847006539537,0.932911945938825,Safe
-0.5338102146912972,0.34103474503131564,9.768873150164273,-2.395915924681324,1.7213708427372603,-0.1943790876468728,Safe
-0.07118974251064675,0.06308895183098359,9.963225431481671,-0.8531425056611471,-1.6657265503090704,0.038517934702251094,Safe
0.06014781585594943,-0.11123744838913269,9.591131338797839,-0.7788071230507532,-1.672677072992576,-0.296566275854806,Safe
0.2572194170293745,1.023431097859779,9.9009949413114,2.7116106788630026,-3.7328963055269506,2.0355919380719207,Safe
0.3558074390444449,-0.33746700939527613,10.029743024004256,-0.06988300091726556,3.179791189621388,-0.01585717490674081,Safe
-0.5623210459189346,-0.2015379945325154,9.760845076272812,-1.8146531187445312,-1.4403079540431334,1.5341004369854196,Safe
-0.7670570853678111,0.995776651102367,8.908124757953752,1.1173905658436383,0.4820865557242235,-0.8676950467051444,Safe
0.6388384109492545,-0.4160306524249283,9.975735448165448,-0.8092770400818927,1.207834082966749,0.39128105662463153,Safe
0.16615700598979583,-0.27505764146826944,9.99228073867773,-2.4487745467159088,3.024135898282906,-1.6078406884788423,Safe
-0.3742432682782768,-0.07351271171542499,9.469913261826026,-1.7855466145523013,-0.30779554797127057,2.433056465099074,Safe
0.7755759877612615,0.42036724106477463,9.167806481963744,3.468083908845238,-1.0788595875568372,-1.6674944814382315,Safe
0.05783731714642933,0.1039012536766567,10.547939575251982,0.7684184432989245,0.34613529714110697,-0.6499588885226525,Safe
0.5896485920319132,-0.6463126735761313,10.055722755447201,0.2155201109050859,2.568160553084574,-0.6299208249094898,Safe
0.033759240705054476,-0.26608428156359476,9.695459484539146,-0.49978747162409226,-0.3403450628015675,-0.7079027753475367,Safe
1.0303739624409936,-0.3036772166061057,9.241483558426257,0.5842976842375978,-1.9097381631681527,1.444991538885874,Safe
0.8776704212216022,-0.038610522611522785,9.399092585789328,0.5604718920049886,-3.0815156166307247,-0.6333155294732874,Safe
-0.12448207423953675,0.21292182931491455,10.461295198393117,0.5843376564146522,-2.4425947692104506,2.7878490610821456,Safe
0.4857854754771777,0.20910287794398605,9.878830970434024,0.229690180555506,1.7287829948133298,-1.6369501722603363,Safe
0.3226879747925738,-0.8880058770242011,9.534706466499648,1.7375966766110986,-0.641248952613623,0.33875493988541383,Safe
0.6843157787661743,0.531970493780428,10.064844615612328,0.04620869200146206,-1.2150418198414208,-1.5515719786251998,Safe
-0.48246173029005224,0.12628442299831175,9.40280090627684,-1.9558776711052774,-1.4319344463678847,0.8419455650629334,Safe
0.34302572999921965,0.6922660237969531,10.56042151514019,-1.2248457818017364,0.17009172040036363,-0.03189945395354007,Safe
0.5292122434247939,0.22209916364533594,10.486400267448364,-3.9580373869794245,-0.47891018753116754,-0.3101240893969569,Safe
-0.8793697432115571,0.5506614788678811,9.576712964398613,4.053634232084785,-0.546264287438505,2.376949933007048,Safe
-0.5916292563328875,0.23327265572506348,9.49566487648457,1.7255091839053733,2.6986478556214784,-1.3086837421102069,Safe
-1.0196160888800503,0.6731128781013741,8.50093340065386,-1.6601409902584738,3.076032563723267,1.1730303152360002,Safe
-0.13470341722227888,0.2611253180088893,9.069209614224317,-0.5636896987941998,-3.220043345817993,-1.5379198253495847,Safe
0.35877112789798116,-0.04895762322145203,9.140265112521123,-1.2737529484128667,0.6551854622859152,0.22537040032074748,Safe
0.751178526048014,1.1362173602234409,9.877595170493693,3.085094422748234,-1.5537241972427844,-2.3911506564468907,Safe
0.03704739020988759,0.44451856113994603,9.64688314777932,-2.839754328541858,-0.4965022277221871,-1.3250342926134808,Safe
0.8143077727856459,0.28687221050220657,9.13733225629238,0.22895211763755854,0.6185567702533888,-0.1642860911457301,Safe
-0.6900507291074457,-0.638152208269168,9.669417978767722,-0.2170556851296957,-0.4254398338618387,3.6292983346461556,Safe
-0.8516912196775773,-0.6441538087317689,10.062668573823675,1.6536772614182287,0.46091976125526635,0.20160774091954825,Safe
-0.02777384944830939,0.1463577410709267,10.073919674957795,-0.20801845544939,1.345940412063835,3.3093366317334127,Safe
0.19203272446965364,0.0727605988841204,8.86016485957056,-3.5164177533108703,0.5891536010806397,0.44064658338183604,Safe
-0.016347374047046555,-0.3070612825041581,9.745868259758085,-0.5022356692848817,-1.293672608335247,-0.7741684889498782,Safe
-1.0337210500199383,0.07049134980603,9.118329611514195,-1.94432443588665,-1.2583992139406477,3.078713045201387,Safe
-0.044560019756394204,0.7943134640217979,10.260864348570138,0.1591590931131213,-2.879410593236071,0.8740352441468378,Safe
-0.6522347502524266,0.34770123727514934,10.20207320817675,2.868354073040653,-1.7078405950414366,-1.2854431877654273,Safe
0.33483627441501923,-0.5705042548763691,9.360986386837771,-3.4788504884645564,3.9241367237970564,0.9411429188005949,Safe
0.18329912304842413,-0.05575441357147185,9.426977398799801,-1.6004454707998075,-1.584007148190489,-0.5851894998152204,Safe
-0.4699398931636776,-0.4024832404262804,9.579366474750847,-1.105385907566994,-2.3867576248876397,-3.9780683923425917,Safe
-0.25693345866834677,-0.19384995820428058,8.683603302634332,-0.7632621908264227,0.6398557236895467,1.871946318531235,Safe
-0.5296067609444758,-0.20680783281482137,9.977984086720289,1.4802513282104885,-0.2207295185837197,2.189868111283858,Safe
-0.03133954863658594,-0.2388227913020026,9.673577726829935,-0.347088835122775,-0.39118647369845083,3.6758840599845506,Safe
0.47757116025061913,-0.6275676859866974,10.29508754128393,0.8316054514408904,2.81809193282418,0.8442873843905253,Safe
-0.49286302316777186,-0.06382734075909506,9.260795391018725,-1.2515460874635527,1.0982533511167303,-0.49744684816506507,Safe
0.2520232577589222,-0.280303818423655,9.500438525875035,0.45984869083587504,-1.0599858634069508,1.6699788547571717,Safe
-0.2651288091862204,-1.464724345001134,9.056737370980443,1.5555952617554298,-0.8489518351835599,1.6996407306378127,Safe
-0.3964364161311721,1.0264860122508315,9.307854718252873,-1.4645990994741769,-1.0051730278113702,3.276562366272844,Safe
-0.053515179977278914,0.544384827108336,9.21900900196589,1.5627162396130294,1.7494792431605142,-0.0892552461328843,Safe
-0.517621161209687,-0.18815036246249803,10.307986839423224,0.10474553745513696,-0.6162952589062749,-0.3311579451351889,Safe
-0.276824652673591,0.009409524870299212,9.460869075624304,2.0909204809645052,-3.586307004908301,-1.431088839517055,Safe
-0.5989389462944242,-0.5858271736587809,9.872087842372308,-0.40283980015394705,-0.09663935746868864,1.0749241734504034,Safe
0.9823625664581946,0.8478614389054326,9.6196182980691,0.7624893103241976,-3.074052002255858,-3.0965233364616704,Safe
0.017631775985864306,0.9486443473865558,9.175267366993594,-0.08121246335706,4.368461203509804,1.5521747457251291,Safe
-0.3498627539962928,0.0783468641232623,9.725849788414179,-0.19242452408115793,-1.9313358276944619,1.1756702437315791,Safe
0.106989955367111,0.5117653220926723,10.109551665931798,0.5178608564513797,-0.32372953071546134,1.170140404916744,Safe
-0.05616402484541491,0.08764338946696193,9.206120303728325,1.0736149384498075,0.5164054694022738,0.27645047300368086,Safe
-0.11048479976661149,-0.6683627194379653,10.21455639536569,-2.49912982384801,-0.57731632135846,3.0659564950621694,Safe
0.3070833500217126,-0.20591168448182864,9.385139539261152,2.8672672176357556,-0.5800608029323853,1.7439869308537266,Safe
0.37875385502365255,0.06596398338597853,9.56850803696358,-3.719326081099597,0.8436545723217542,-1.2141543827513994,Safe
-0.26525057380526373,-0.2272738593717221,10.075341561505024,-1.369624219477792,3.0524319175925574,-1.1783580993952936,Safe
-0.28790912032234,-0.109326638717518,9.478281921390256,-0.18853814152980133,1.535018163634595,-1.7593476268292736,Safe
-0.137525848575822,-0.045699778754557226,9.828787429667933,0.8247119381718963,2.9570277571470855,1.102566665551175,Safe
-1.1509605823677924,-0.040439248932730654,9.652654585605955,3.152345055482757,-2.093238216187004,-2.0002778424799135,Safe
-0.7575955310992761,0.026129245248741606,9.87468400335191,-3.7165829764502147,0.6347252665107227,2.1667842871667045,Safe
0.6834371337222623,-0.5303025331983005,8.619630447238253,-1.0153882567794212,0.31049210411655853,2.6459466166910866,Safe
0.8224838567506418,-0.3585080745639681,8.895159092395959,-4.253666975598531,0.7021825833534696,-1.7580325379009023,Safe
-0.12451801977818916,-0.6422921328499847,10.117983503023419,0.06324394782049554,2.752463941271145,-0.3710970691857074,Safe
0.2882784815278832,0.48890777484310016,10.328590702824526,0.5433671690000613,-0.4415782995841081,0.033241962724827406,Safe
0.15562507727176805,-1.0528234709201623,9.35475664823424,3.1815914843425053,-0.8110067331081754,1.7679663209393353,Safe
1.5394404042276189,0.5767951716584627,9.687985823914433,0.24126952178690825,1.0679615948373278,3.218686751219754,Safe
0.5597874557172884,0.6931746986314217,9.95735962645115,2.0880502588847594,-3.556405455131695,-3.370984785737155,Safe
-0.06395879574038327,-0.1510902934913107,10.156608800829353,1.167674163078118,-0.4737040982443566,-0.6363614350533657,Safe
-0.4777702203002129,-1.3015685439136493,8.796161364164576,-0.8704963940103366,-0.26839537857090595,-0.5320333911206939,Safe
-0.8032231601287863,-0.18065528098364525,9.366979876510811,-2.8179214935840786,-1.8407172326138506,-2.8013397097730954,Safe
0.10173181793361155,-0.03209208064440964,9.643710310075063,0.5500045965836216,2.1141180227131544,-0.9702200386081232,Safe
-0.3781753726421517,-0.5052991099644567,10.161570098618025,-2.9842040342907277,-2.1244806346865683,0.8555378887012223,Safe
-0.7111268547988371,-0.2576091969041214,11.059215241860748,2.590414145339288,-0.2717460967275924,-0.5573578056791143,Safe
-0.3232864421212633,0.7650975994316757,9.69599713659514,-0.32412420407364784,0.5863144506459367,-3.089242337214827,Safe
-0.5407740018071975,0.3324635811508705,9.106511268948006,2.390354823022833,2.706903122952237,5.748165396019827,Safe
0.8435708175362824,-0.46228205718904997,10.01113403860065,-0.9604288682647989,-0.02111286976170663,0.5323557304083606,Safe
0.44081987847472526,-0.7987995847977161,10.470497894770356,0.5377015728019838,1.872307188256421,0.22338826021334998,Safe
-0.003986320658308686,-0.16350865880488555,9.864007060489751,0.41869771466937755,1.4011907945542548,-2.1958527261340928,Safe
0.7399720694450129,-0.10672838967521912,9.356675727422854,-0.0900882360218479,0.24691511233828506,0.5214123239425507,Safe
0.03868415382380915,0.24809959368165815,10.28899697074001,-0.8653190267931842,-2.179026816546911,-0.3284275680829886,Safe
-0.43064210066413183,-0.2676583562838295,10.141772809249218,0.7849120369410404,-2.8691617218086978,-3.7770468254308125,Safe
0.7615620386348286,0.2557497876809307,9.296959577902188,-1.8523265269664166,0.21301080283837293,-2.1405108800288324,Safe
0.26945502184232933,0.9675770200301146,10.00071280876717,-2.4188706579181174,-1.0853937478052271,1.58985203534789,Safe
-0.5186230771632282,0.4077505112221313,10.308632783829436,2.485653786653655,1.8385221833625836,3.888035300000883,Safe
-0.0951693390418041,-0.024044253665386293,10.400945021279448,1.454335977784201,1.4917130361971551,0.7343308100860892,Safe
-0.4378091266923786,-0.09157523552664734,9.776775512345273,0.13178321720447989,-0.3692219888740996,2.2061665565867346,Safe
-0.691399865482168,-0.17833656708993562,9.630960276910342,3.330284765087563,-2.3154258478825387,-0.31151061716642,Safe
0.4630887737658207,0.5903204562260723,10.423636911040632,-0.5355310374496897,1.0214710992145468,-0.1730923213612058,Safe
0.9547083202350652,-0.31365672297565145,9.204919748509559,2.645406439977959,-2.0358988922703007,2.18195805523893,Safe
-0.6992837869095706,0.02261135449999128,10.029289645460503,0.35114816985164365,-1.51692784586173,3.3255545783589384,Safe
0.28148461834528543,0.02559895094054267,9.124986686317786,-2.0495015001527803,-1.958831476430309,2.6021933869312432,Safe
-0.32532128456091347,-0.250892096405766,10.342688136129802,3.6960803835416995,-0.2770020438799069,-2.132726150769638,Safe
-0.24356269188234803,-0.6862327739420504,9.68097724219442,1.9814216932481703,2.340384668141123,-0.13391778063049153,Safe
-0.2961969621194346,0.16148725180883408,10.444291617823735,-0.2420420620191286,-0.010081740447057402,0.5550493689525904,Safe
-0.431995384839908,-0.030501985927691776,10.055706378177764,1.4543425190678982,-0.8864373848553915,-0.5193559270150582,Safe
0.024260813972413496,0.25012023471828493,9.198389884969036,-0.8074068679958136,-3.0512298600904884,0.7757150868311915,Safe
-0.4154750582055189,-0.26680015321958345,10.522313866038623,1.658298070119084,1.1042491694596859,1.6411536233378947,Safe
0.1352284128899194,0.6104106494065239,10.585622633213866,-4.782157130567919,-1.560809211857255,2.005619503910281,Safe
-0.025119054724568476,-0.4383868906059224,10.251143246299609,-2.0396026673891874,0.23503523831619322,3.3717403044430463,Safe
-0.11947402343320487,0.8560201420089463,9.429206067481891,1.9585194885739257,-0.7084372318332812,-0.6588822094496694,Safe
-0.45378183102079894,-0.8738182549141308,9.656993022821297,-0.4993110764378387,1.6763544391988754,-2.728066329678628,Safe
-0.28838566528416637,0.21738503227844558,9.88271360870288,0.4150845897774838,-0.3144727840571043,0.7164691880289056,Safe
0.377695612912878,0.23771534126331173,9.458144800334283,-2.693571324230869,-0.11785270904610322,3.7676220623696044,Safe
0.2504585938121904,-0.39777853397044116,10.656173286231603,3.695733991404206,0.9714942949109192,-0.9539517199081182,Safe
-0.4887776223992755,0.2121969689305063,9.882163235863018,2.3810592874353533,4.213880364526371,1.3736939541274389,Safe
0.049666152714612936,0.6397593348800794,8.458325976446321,-0.40137043675065953,1.7768938607171088,1.3914915849452856,Safe
0.3756935616858945,-1.1084094196770322,9.979677906378111,-0.8093917137266526,-0.17721221269721882,0.3828840946892179,Safe
-0.8347026405606859,0.2513724037454073,9.635921301591344,2.059208722839386,0.006395981230576794,0.01384944208742874,Safe
0.2716800961899675,-1.2466354101650388,9.772536721940776,3.9649409003378553,-1.0497189206488693,-1.846858411442785,Safe
-0.33131187947292334,-0.482832401761604,9.62569031710715,1.9075205116227074,-1.8999914070393904,-4.563324144841155,Safe
0.28529933429657967,0.8145831824504726,10.213523208303345,4.343605334793204,-1.105501574132644,-2.2237014133280577,Safe
-0.38162957827125843,-0.290891016696027,10.36984388927669,-1.844702658123836,-1.544297927423885,-0.7806082982233985,Safe
-0.9024410503322595,-0.5869399822044863,9.951526581129327,-1.6387736609975814,1.306736767591771,2.1948453748454138,Safe
-0.8137712189415813,-0.09896886449234094,9.640344406430922,-2.3778822361066974,-2.142389715737972,-0.20625612470275123,Safe
0.024042473330690997,1.033953169081776,9.789331397595415,0.8835212992989587,2.6664211227600885,-1.038051437836297,Safe
0.12986125086074093,-0.9158411236030131,9.819799808288815,0.3512070996087404,1.5040927672376594,-1.7819708839068609,Safe
-0.4521583125522043,-0.5256549558196723,9.408784980067582,-0.3039022469439717,0.04100345873533694,1.3136116570189607,Safe
0.31929622938868696,0.7487158415898132,10.099464324285618,1.6185172562465973,0.0006372229301366289,2.7167143328612102,Safe
-0.8307600311344799,0.9288511717688662,10.040021161930234,2.464657210429328,-1.114562619229107,2.126871443734919,Safe
-0.033039899323658285,-0.05171561214514196,10.580220619888337,-3.051324818573684,0.5401688226955281,1.2122993995169382,Safe
-0.6055080998812283,-0.6195263512633212,10.437674890144239,-1.193944055802231,2.176184926417178,-2.95122549276588,Safe
-0.3259180539010796,1.0479217509045795,9.467162541204935,1.6402871882461199,-1.4063129245116275,-0.7033484856875428,Safe
0.023699335658207008,0.7972211958745984,10.220149187254483,-0.935477367717164,-3.066784177837461,3.8946084577793503,Safe
-0.4302066826419762,0.3394734938811165,9.334523308452765,-1.5964121527163082,1.4064365097134879,2.2439009838304496,Safe
-0.19227777211491268,-0.40620117446871,10.157966050470426,2.0370748553007894,0.648731948487601,-3.07500643646945,Safe
0.5031464046072203,-0.024514670419018367,9.551692900619946,-2.57900013944796,-2.240397602882359,-0.1111810463985428,Safe
-0.2884459347615744,-0.08018004052241538,9.298373388312209,-0.60315961558221,-1.466782741828236,0.7261968653220775,Safe
0.4178460560325709,0.16542565230778888,9.950022671348703,0.6572880516096171,-1.7182085481002813,-1.5243169260524398,Safe
-0.564853427328809,0.725500719065668,8.47271643592293,-1.1476398278202375,-1.4490645380684979,-4.6184080428176975,Safe
0.2649020889576414,0.4397085205687016,8.934512212797387,1.5663113120263497,-0.6473655080823755,0.19764809003286343,Safe
0.7207843103289502,-0.5386880384923791,9.721254058112859,-1.137753950394738,-0.5330946085614946,-1.5755165152408785,Safe
-1.2358222500636447,0.6882482250097689,9.851220883317422,2.8172389868918386,-1.3015873101369204,-1.5676834781693683,Safe
-0.3984476277352384,0.15656607000657766,9.625340614920907,-0.25149259499154525,-1.5163276389998563,-0.7093607198615162,Safe
0.28853606359027,0.3435328979294581,9.0202818506412,1.342540273410707,-0.4575686878387631,-0.2673518293096235,Safe
-0.10152269302149634,0.7332704296393014,9.401054078930748,1.4920479059656326,0.3353830697191225,-0.018165588191372883,Safe
0.18557293668565442,-0.5557901247567756,10.005604663618698,-1.2550800054881455,-0.6325930727296892,-1.7679797978440028,Safe
-0.3019925933579103,-0.017912789353231467,10.100890885314183,-4.106973097311777,2.3173340466826033,-0.4404190592681548,Safe
0.04329489373644996,-0.2657272756796075,9.80188844120203,0.7215115093276697,1.016175428841573,-3.51484674080551,Safe
-0.07783861769603974,-0.7839297126827279,10.388416890518496,0.144576694249739,-3.1816917137173917,0.6220781307361565,Safe
0.5838910308299037,0.17335498880245995,10.008698511729618,1.1116520551502547,1.047455530827707,-5.712550826682315,Safe
0.12721042165060656,1.2557782757922118,9.436272173020894,-0.4530549447656761,1.2110879651711652,-0.5789801608672391,Safe
0.1688013310376011,-0.9200388722528764,9.669748973294192,-0.8608553976014317,-0.8694699362483825,1.8383723073539067,Safe
-0.2059384830612337,-0.016140305524735162,9.108566921396074,4.016946021963399,-2.990395174606311,-2.118681374549653,Safe
-0.24380311203624677,0.3202714675373867,9.755930504804292,-2.9447081230215555,0.01613351882227218,1.4328604073148001,Safe
-0.21627909390981045,0.061539100828090575,10.366050309610669,1.4679009567284769,-0.015417302964488157,2.3114654242417845,Safe
0.19722607118914842,-0.0565640262578702,10.152645042355484,-1.149203716366782,-2.2432924730663895,-6.615799904994777,Safe
-0.21049224041013148,-0.6496081817229121,10.51100466295956,-0.6715572354808441,-2.902438432519871,-0.3027258071514847,Safe
0.14488742844820646,0.11639337147008182,9.658557378100504,-0.6342056651479314,-0.17510709290687887,-5.75154685525655,Safe
1.0377003993227194,-0.3783819885079632,10.483049897257128,-1.6068685483425142,-0.46615438410164384,-0.23641689114189215,Safe
0.4355623517158462,-1.0949608524892767,9.713347886776015,1.142448420472479,-0.8345307306447872,-0.014342421962653625,Safe
-0.16301176608392057,0.5972961102568654,10.545792541284948,2.7812871918999145,-0.16682146949312274,-4.965087971821677,Safe
0.6006069610819724,0.4791929099210212,9.79907162627894,0.9400273224933229,-2.2055527476406382,3.849676724159731,Safe
-0.2040376865107757,0.0258304884255399,10.163615686902139,0.20676399242419025,-0.8696412257322284,0.5720316152692498,Safe
-1.019062267588927,0.11453734410285128,10.547556182154928,-1.9728809981984932,1.066650061228695,-1.6980468641640707,Safe
-0.504043155458702,0.5371590063577807,9.713286185709398,1.0336505316489017,-0.6999401607025776,2.9307588549970367,Safe
-0.9353959605129278,0.1121698283890413,9.919194493772087,4.312699263458597,-3.343944943585104,-3.5912264412846335,Safe
-0.17575674202065433,0.4520087773806572,10.454431712603151,-0.761389247590185,-0.9453845554471433,-2.4583420670366345,Safe
0.00920918959477585,-0.14874110043692507,9.743498418034969,-0.7519671587037323,-2.140316927013721,-4.598911047339797,Safe
0.8382186561376413,0.6559918692869733,9.14955385874692,-1.1221782619619947,0.5342725929234615,3.602090393078668,Safe
0.16346368688208132,0.16039286296634195,10.881503527292455,-0.9788284689888408,0.6376748067608506,0.6646927429440069,Safe
-0.10955026440443212,0.09702597180293701,9.575117767831433,-5.490599107344769,-3.317549250172062,1.31880357969699,Safe
0.4147027905917446,-0.635030544356016,9.889378025468773,0.8100707717114256,1.518025941164378,0.6020024678369514,Safe
-1.1055676545039426,0.14347792715085436,10.388003334725564,-1.6911043527092275,-2.224372602557117,1.1475355222891692,Safe
0.11780727905428297,-0.4159774587472256,9.5057530481344,-3.2205262375836003,3.1183645809647027,0.15615542779197888,Safe
0.3854325969434834,-0.3191413632642471,9.306066043388935,1.5063798994650976,-0.09755252900123373,0.5418426854148827,Safe
-0.7392931228899208,-0.40768781415806055,9.936868648387417,-2.1640355700838723,-2.4927869970783245,0.21520687244590153,Safe
0.5718770216034645,-0.5331174659496125,8.913461801043805,-0.6773381077675152,-2.283972141385363,-1.217183611138557,Safe
0.16924820374720706,1.0623857015084808,9.66604696156604,2.93288478237716,0.6961905835746897,-0.0932495304293383,Safe
-0.20764395695040064,0.6656695309942016,9.932519332157703,-2.818431596049027,-0.7825997797967552,0.5471891465233553,Safe
0.3163909330531424,0.9601837510721306,9.67502405158742,-3.065196469195524,-0.19330781923628165,0.22109823910426157,Safe
1.135346428902198,-0.611447509777782,9.038274528407127,0.5386123791246763,3.2255604653940786,-2.955544215506634,Safe
0.09093312752924758,0.035626874955446246,10.607088978102006,2.298974728020737,-1.3984881284581505,-2.6899733372168186,Safe
0.12411029315016804,-0.6467538126020479,9.861769076974587,-3.148683435463926,0.11992571539141324,2.1656828678327824,Safe
-0.22968044977012206,-0.347847438598532,10.525576058880871,0.8153794736743541,2.8396889747461063,-0.6139880917668036,Safe
-0.4249221847323959,-0.4590634917082874,9.679981874909778,1.1619990799233841,0.5410269509328003,1.169450694071881,Safe
0.4151679082721228,0.6197920032207808,9.369994009154619,-4.118320967384641,-3.213205470716012,-2.1842398194447927,Safe
-0.4280419129544336,-0.19811483905087993,9.94459046012758,1.5970026758144404,1.0107780234642736,-2.94629175329306,Safe
0.035783118609696234,0.5341896668470082,9.70210643683589,1.7532117596843588,-2.3260057155668883,-1.687193225063426,Safe
-0.23882872338255834,0.302060444794259,9.221119271004321,-0.6235711465120495,2.81361505746593,-0.44513014154282654,Safe
0.23948991287319593,1.1518193760523945,10.544892129393748,2.5046927245960164,-1.6457352099959557,-1.3302805985688246,Safe
0.16683105264347414,-0.739722111569862,9.498864888553003,2.2729111486496905,5.939019015491329,2.5878670462114277,Safe
0.5187699721289496,0.6296166198933995,8.889866807602216,0.2062358514344097,2.9347519766553565,0.3590466030749231,Safe
-0.2550081994273735,0.5732204352003638,10.474083026978667,-0.9028907806498673,-1.5932251392559573,3.697877237123717,Safe
-0.13493746764668563,-0.4866894190135173,9.55785099209369,-1.9456557851659142,0.04002761000322097,0.8088163081428345,Safe
-0.4893818578911537,0.5035666682365798,9.506088053692189,-0.07512701873238246,1.507288563266927,-4.825101635839622,Safe
-0.2221466300380558,0.1680724815131144,8.927306206485014,1.139517839408358,1.5673209484534154,2.112083212917109,Safe
0.1886502465224261,-0.11373812997670389,10.680470743298496,-0.6483537220812825,0.8846725199523944,-3.0191032449399096,Safe
0.37849430832267594,-0.4119677434859998,9.165259706395156,-4.39500201052406,2.50431807393222,0.4610673344226783,Safe
-0.4610826620888127,-0.35955472572459296,9.839224740352826,2.5374277891531407,-0.24593789326873905,-1.5493681153276897,Safe
0.4348029600528301,1.024906047892963,10.266310161270221,0.38044644368978753,-0.7334353371520663,4.285422068928373,Safe
0.6778189294024755,0.000341409478741314,10.020858466501549,-0.7592489933536677,-0.6937279758492212,2.8791958548602707,Safe
0.20671745161185043,0.3910650007657296,9.780172844003905,1.7143167768465768,1.7167464639442545,-1.4836412834035164,Safe
0.938397906279033,-0.39544969083377657,8.959167070856292,3.0492771929655125,0.7303620806052922,-0.25471533624222353,Safe
-0.3868945995517865,-0.3899264731108194,9.405137582116359,-5.603823138975783,0.5825673313805128,0.4891961392984348,Safe
-0.6223273516557085,0.5409924046249711,9.903900169021261,0.8685272998441431,1.590468498514364,1.7268281431232209,Safe
-0.8893601244521393,-0.6747881057757661,9.416412965006502,-2.8532984216206945,-4.10210481570771,0.05830382465002536,Safe
0.7480221557445915,-0.20760688395263577,9.911679729999385,0.9982210135978825,0.6201376477503008,-2.0497897987617337,Safe
0.3271828281770289,0.017013705536116024,10.150871704407571,0.2558544047491585,0.43713777774743146,-1.4351172784001058,Safe
-0.027792335455227534,0.05568630092002621,10.291251442900052,1.2714530528810999,3.3376161626014103,-0.008963592753582661,Safe
0.13998431315991014,-0.08954664250807813,9.19691032109366,-0.9984952289893104,-3.057175964527334,2.468913957529382,Safe
-0.5627445236491883,0.19790989054796154,10.908323027489477,-3.746480223638304,3.114373264753516,0.8556757210720879,Safe
1.2228759898084132,0.3464278779089058,10.193739672277065,-0.9007363825133362,0.15081825784933162,-1.5468298532300317,Safe
0.06461059098761375,0.367318772729665,9.809142923165469,0.8136952702795661,0.9779790613200899,1.29674555541958,Safe
0.054697397302446445,-0.49290190433391334,10.35476829153832,2.0307846573504467,3.3518375752187533,-0.7739696777563196,Safe
0.362883311949346,-0.1420775489643986,10.992703885999987,-2.3436626009450503,1.121522536011146,1.7808160103736825,Safe
0.2405046158683566,0.5973814309384688,9.090639949471566,2.054120853746035,0.8007365789251218,5.054020836657211,Safe
0.11194201213956569,0.44732359378693615,9.697368678754323,-1.2957445792930427,0.4845823716046368,-0.717652741887099,Safe
-0.39523722772265596,-0.686429725740532,8.620784170063336,0.724899763189053,-0.9669562699887538,1.6032103194527418,Safe
0.23573417856799786,0.17573995017610083,9.906325766324013,-1.0197879057312655,-0.056978249020785784,-1.4907866640754595,Safe
0.9410122482375168,-0.9891126246874051,9.992697120962571,0.36434125542420337,-1.4310255322454972,-0.22452753438259515,Safe
0.6727100230774888,0.023467451030184813,9.79041894227862,1.7837552691405492,-0.089133798850964,0.05912457374420259,Safe
0.7965933133196985,0.9488835083729885,9.482733214500845,-2.4540281545770717,-4.671861394110193,-0.3873673200887611,Safe
-0.2556078382155926,-0.47394635863449314,8.785242741905838,-1.3598117934936629,0.8580791351350973,4.926027377550048,Safe
-0.49480241012929044,-0.41716152274579105,9.996766841705885,0.36992517468417324,-0.24347450756725098,-0.6131861493567647,Safe
-0.06289346004982407,0.38201489078642975,10.537717241957663,4.8031673220607045,-0.6724074733335286,1.173703077569736,Safe
0.027862456144347302,-0.771400757604823,9.514490772133284,-1.726379424333656,0.43951616788028636,-3.8601737386468646,Safe
0.5470957592354743,-0.31637751494251953,10.030029964511574,4.080267771993838,-2.8671278459308813,0.8639931267392206,Safe
-0.8462323148574097,0.29822056879087633,9.025927843289976,4.008846607350342,3.858539993242565,2.2841091847044934,Safe
0.7647751597303069,-0.31714292384470155,10.038606531846257,-0.19462230140318232,-0.20553492297519935,-1.0551946851581018,Safe
-0.07900394928949471,-0.11798499360548581,9.613308851127671,-0.5963050523998006,-0.29168886594437915,-5.020444282080826,Safe
-0.21344053497371002,0.3720928551575173,9.428791024698544,-1.3841303973293835,-1.9307924202658446,-0.0773035376546502,Safe
-0.5060521876300837,0.21077304176828063,9.429818179391935,-0.1364050606653382,0.0478927648985225,0.03436770077105615,Safe
-0.8274283359328847,0.13340919814770094,9.613194208983495,-2.813438865119116,2.773919780546561,1.4481501014886082,Safe
0.4115852919809573,-0.16956113963501937,10.001216657846268,-0.1524780346411952,2.071832418864068,4.021806070826868,Safe
0.036658983594201944,0.18503055763447768,9.153918399402242,2.9937605477017124,1.7088755022811122,-0.7601073012006135,Safe
-0.6449804498705269,-0.06186634004987831,9.611442334216074,-1.2221701249534354,1.0927979033345432,-1.7125762473205608,Safe
-0.647539386031808,0.22890280496289236,9.789264111000426,-0.4814486079781015,-0.7170850551252195,-2.3338356027428864,Safe
-0.1678923496450641,-0.24846601255898912,9.26048038773407,-3.4022809485344836,-2.900326334073404,0.3961572340631987,Safe
0.8345107626446965,-0.09128448718977056,10.708332600837508,0.748124176262087,-0.4020775437332701,0.9587085176370038,Safe
-0.1297956756818024,-0.49497889627600694,9.38325225996933,0.5289633699027478,-0.47174292906735443,-1.091310788725169,Safe
-0.7515714765590531,-0.01750380500311795,9.475281543183256,0.1274047195315418,2.097588879342482,1.557365491451579,Safe
-0.12287153204297216,-0.4055004318144224,9.320846025088752,-0.43365410044428676,0.6187808849196405,0.9307681536383513,Safe
-0.13636178487383524,-0.5570232250809967,10.709240043569059,-0.5855158375449094,3.2246230558070965,0.08646337928978073,Safe
-1.3484433214707858,0.12933057392769406,10.086452614299741,1.0038004674013439,2.394977080076349,-1.8048294414882509,Safe
-0.027147433258906103,0.10636988792883016,9.341703996878179,-0.05763320317724662,-0.9129912190081914,-0.9637286309694462,Safe
-0.11546726510433898,0.39143686747428624,10.363115779429984,0.6299437431106644,-3.5902583932397367,-4.85951059536509,Safe
0.3481031824067092,-0.21556278478754953,9.91034934714444,0.4299656349090959,2.771150467882962,0.4715741283960673,Safe
0.9244780474726726,0.20402642341837784,9.938626710555752,2.2468545741915236,2.7187704464614884,0.05268257749487045,Safe
0.5632825147738787,0.2753987861368316,9.637761395623775,1.3539881947501085,-2.732423181804452,0.37695798217897286,Safe
-0.13444434527741528,0.22238690391579738,9.435292006521514,0.3857236863003813,3.0184800396550013,1.0086380311291205,Safe
-0.5532629543708352,-0.41282684140107107,9.978883049527301,3.0368440613043597,0.7642343411850357,0.7716429728644459,Safe
1.2866799016249302,0.07468174113559445,9.537456385002205,0.840537058113123,0.32137099625130605,-0.22076636129207056,Safe
0.02960921700724413,0.18207014802733068,10.718377814787553,2.6099253775808378,3.2295665084946545,0.09733608632550489,Safe
0.0069646459564731015,0.003589233453970971,9.175354447378448,1.2138852167732757,2.6893703464612297,-2.808632833392339,Safe
-0.012062543555001639,-1.0432388291855423,10.578078386427473,-3.683838157863086,1.3026619039904077,-1.1674412913788517,Safe
0.09904238038392747,0.08024481198674004,9.7543405756011,2.609669526638659,0.9464341316239661,0.10094210736692277,Safe
-0.07218020596197124,1.106265519698621,9.959542867010553,0.2703524826853382,1.2327885810607182,-1.4717071518247211,Safe
-0.28683100344011814,-0.18001963437849136,10.226578883314717,-0.1039095418015559,-0.8001148677650518,1.7203015917450928,Safe
-0.27342947062019607,-0.3640385489276606,9.494875352497782,0.5626966949791541,-0.1102028994646419,-1.317264161910061,Safe
-0.016376635107999193,0.1866742798556991,10.24212419234932,-0.6899663239141348,-1.8046343091890853,0.43261082249663263,Safe
-0.2717123855668825,0.15618910523328586,8.456228072309411,0.4540577207778906,-0.6660795514778376,0.23313131363067174,Safe
-0.3564228913385822,0.5963675827082072,9.450005233389032,-1.1837521326861848,-0.7332677573378661,1.4925551872208194,Safe
0.05321511384594842,-0.6289340779544439,9.347968596329467,2.54854451746874,-1.2706107392433292,1.801582348056604,Safe
-0.12748860871042764,0.3656901262874962,9.18324699381412,-0.2271762272421006,0.2734930052969262,1.388065221935879,Safe
0.7519964942913443,0.29521103062573173,9.702522580960524,-0.765167685444867,-0.6479617014011544,-4.212012402766267,Safe
-1.325484904196506,-0.07107326847027305,10.002874984090848,-1.8498516314385478,1.0044694407039478,2.3882962960262533,Safe
0.5457534259612309,0.169343658960845,10.161329999249654,0.537551578297283,-3.2446412265875306,3.0546164483891958,Safe
0.6230425962488145,0.5147287407991786,9.930438378600204,0.3742142002501838,-0.22670958821459938,-0.9642485686429388,Safe
-1.0366951162040747,0.43615769001422516,9.477153267553227,0.7768492273550128,0.26310328035499136,0.4732938253456996,Safe
-0.17134379704017438,-0.5715096560368643,9.994508218912584,-2.0545037750102577,-0.6212584796737611,-1.781663360261564,Safe
-0.18572043299789573,0.41007909337774223,9.872142847425426,-3.202362397623146,-0.34478539961846255,-3.8967570134643026,Safe
-0.7037558473589106,-0.03234430251625924,10.278028083968008,1.2511826050131196,-3.1704920214597148,-1.4774305310847726,Safe
-0.38890834379543765,0.036437049007757696,10.19846835146576,2.969283723753015,0.7129542093389841,-1.0802780789272206,Safe
-0.5552879227329144,0.03659849550084725,9.825238206960314,-2.0527072447797923,1.295211965134141,-0.709701462703631,Safe
0.8761352217118114,-0.07512149439912999,9.361373496919372,3.178882567123397,0.9870745884075337,-1.9178281800119759,Safe
0.4678391965737306,0.5958537485535325,9.48352492208396,0.5678221174727618,2.077454118884366,-1.4668503336344778,Safe
0.6357775474970794,-0.04185897992460601,9.535105320180984,-0.01412580910165943,0.40305921156500396,-0.022012643256815394,Safe
0.36083603202161757,-0.5597730641915843,9.652366833041873,-0.795097393091556,0.9573623613018741,-1.540453966220284,Safe
-0.5645258856086146,-0.19676492798486442,9.944025213794877,-2.7690360388499933,0.3121814769137048,1.0870486651000557,Safe
-0.26226013313988683,0.0893473584052378,10.16758719506403,1.9754570318491993,1.3751014391849883,1.363321302794879,Safe
0.24468728061395903,0.6146073921485252,9.784440653492311,-1.5512127228752062,-3.154459272264244,4.760775492328979,Safe
-0.6110639044459727,0.3015473424744168,9.818062393950237,-1.5596133514752006,-1.7871619359560218,2.251359864246924,Safe
0.35649921508619403,-0.42526763937352197,9.881653152500002,1.9838526197739093,3.173799314066182,0.48620611665682884,Safe
-0.12016269907906751,1.2425949583394458,9.55204734343383,-3.765966893343453,-4.9208716441924105,-1.2405285933353574,Safe
-0.18741040377479876,0.1323876554889898,9.347303871178523,-3.0471956213363334,-0.2803558596506879,0.5874947033479976,Safe
0.35547998410174575,0.6376953689995074,8.932281051344646,-0.03626848701616354,2.3445499192161363,0.6531919198327122,Safe
0.22213165574301988,-0.07585721678861457,9.462425320961565,0.5865688580097042,-0.18652133108352925,-1.0266261780113217,Safe
-0.18048308290953996,0.2666796223527247,10.046572726633894,0.9694692959378477,-0.810022142901395,1.5674627935057552,Safe
0.579664901682124,0.41973425225920236,9.458544280980217,-0.6035969867925056,0.2588433536306008,-2.7961960293637507,Safe
-0.5405316637999487,0.609097355877128,9.691096481287031,5.060739337283379,-0.7062403600048932,-0.4887996710750211,Safe
0.3079678034721319,0.5286841526891125,10.043215643706159,-0.45578511753166817,0.06169898551387833,1.1117169186348135,Safe
0.2965506289841919,0.4360985000364889,10.070344748211335,-0.46157230420544426,-1.3667620730402592,-0.575168295184194,Safe
-0.15477321965699514,-0.1575433655970543,9.27023357391698,-1.593973337627755,2.2173488399114483,-0.41350880685854247,Safe
0.163066511121059,-0.2858730209780307,10.30852967822682,0.24781363304214216,2.846529842131322,-0.2755717223845609,Safe
-0.6255567881926515,0.16630375516209878,10.373675044677743,1.2299224640935493,-0.2667806442232451,-1.671202481375491,Safe
0.4620135096034505,0.46656403617053466,9.24507507139072,2.40715610906692,-2.7729788413824865,2.3478018631484163,Safe
-0.09245106822149451,-0.11136035038830353,9.398081565179423,-2.978568528880436,-1.0476863406267904,-2.03607534384563,Safe
-0.26136151025951976,0.5325859828571933,10.405545341573097,-0.4919906767114016,-0.36797732020592844,0.6363186548197703,Safe
0.5245046129184446,0.7263083727430897,9.73657323937235,0.8934072216182883,1.0110777538064162,0.827295796564747,Safe
-0.3521718452713796,-0.45816045953670986,8.700111026274076,1.1741150691890712,-2.016026446341356,-1.8972438024179337,Safe
-0.7042306481817798,-0.41846035189813996,9.110159247633657,0.013097315609078551,-1.5383246372843014,0.1462085087614866,Safe
-0.7783145867619519,-0.07018752945266822,9.68531518741376,1.0848479390642036,1.0213522757176148,-1.8192643454894044,Safe
0.3030049756728198,0.1538063340945982,9.2284786748577,-1.6179277858516008,1.8778176640791155,2.7820849501118907,Safe
-0.6402146762481415,-0.2622835068835255,9.60328811468178,3.1158108646367135,-1.2431880903413683,-2.277565873952426,Safe
0.8773970909921823,0.6761013394335722,9.82619810684179,1.985256205958859,-2.666434107901992,-1.3077941884639288,Safe
-1.040964703941861,0.2120334307592256,10.541127302017365,-2.6898555741303447,6.568236402575768,-2.448450016711161,Safe
0.8482281841450191,0.019723524120369745,9.664773041886106,-2.150206096233511,1.566608474177427,-2.715397453735104,Safe
0.1055087336013092,-0.7179547619342638,10.34627089978638,-2.0938435002138123,-0.5340075235340632,3.182430581764587,Safe
-0.048356555935196194,-0.6579079082137536,10.524380081018386,1.3559399417930569,1.7380625510616794,1.0855493478251241,Safe
-0.27245954340447487,0.14050462514090314,10.527154834676038,-2.5694555328349344,-0.2489132594288442,0.280586851401088,Safe
0.19956805717603543,-1.066297813077418,9.952377296692784,-0.6620486684161612,1.7343137782003726,-1.3131539266938432,Safe
-0.018817351212424182,0.5063187048220359,8.828355426080513,0.9094087928335488,0.31878639555244437,1.8152236220935367,Safe
0.5516509410082607,-0.07907692218616015,10.040412432701933,-0.13233186909286945,0.18254379633514653,-1.648444878734906,Safe
0.05711382433101982,1.6215464847973666,10.334199943906771,0.5177750314254116,-0.22716373646157725,1.5872785886602059,Safe
0.0751508807309388,1.1539581253080553,9.769466447282293,-2.1316054226975165,-2.8947626669261797,-1.7450225532112724,Safe
-0.18180610610692793,-0.09072453462375837,10.682291935037625,1.1897087467944893,3.8761897987862795,-1.2890154037513437,Safe
-0.028472811860533728,-0.05316850126565748,10.23991678073373,-1.226423784951993,-1.8830678405354868,1.5165647722358422,Safe
0.1539008844460296,0.4977907570010149,10.094136688576393,-0.6492393487958825,-2.720047152621189,1.7276546883115342,Safe
-0.8550841963283128,0.8515863049590189,10.35319035560292,0.47546345581197225,-0.4257197655127346,1.1949458677935223,Safe
-0.6740927110528565,-0.8190145287180084,9.97668492563044,0.20615644306169634,-1.9229436270210134,-2.0993482315135896,Safe
0.3716320470113575,-0.8931877326773433,8.563594750302324,0.047960038031185925,-0.10342558112054206,-0.8934537314456575,Safe
0.08543271906397093,-0.3110174027771907,9.560430524264818,-1.5012536439535114,1.3755276971235373,0.3137974823970268,Safe
-0.09199166817633957,0.2913687915869322,10.408584013623928,-0.5990988223983843,1.990605801058446,-1.6985619238201832,Safe
0.00921696653269658,0.24843679525379855,9.406204329950853,0.004367181674071891,1.6294614432433634,2.741925520258586,Safe
0.17379085268083552,0.5348857274919251,9.698263747381532,-2.7501704663341697,-0.6112641095713606,-4.803893887901092,Safe
-0.26987984015468075,-0.5998487641826541,9.287581843048464,-0.9250659326267576,0.09918365532317175,-1.5574790307383057,Safe
-0.38915236270115633,-1.1580719314844383,10.701961297600885,0.7753597580656929,0.8157581017949819,-1.0191330057396635,Safe
0.09792262754884078,0.4290070976510727,10.650746228709009,-2.5548732076906853,-3.515574847884145,-5.6878873295435355,Safe
-0.489186388807516,-0.4140981364826173,9.368065552429636,2.3131633031884795,1.1411694002397192,-2.7924582604723818,Safe
0.20412637785723592,-1.009243932194319,9.883649000194543,2.5392265251996857,-2.914598575167663,1.2505790250841369,Safe
-0.8512918021189202,0.07253187297969081,9.469752976117977,-2.490301151920171,4.080693197812979,0.060567273105927605,Safe
0.5145778186628218,0.39658784410933867,10.11747231951569,2.7152392661002787,-0.8090301692833907,3.1462720440858054,Safe
0.2362987412065215,-0.06102856606063863,10.064841538621165,-0.2871631774242688,-0.36975035438918247,3.090452891769638,Safe
0.12801486715693783,-0.22892419309124462,10.215852785806634,0.8370291183141096,-1.5394141984757108,0.8660927572078934,Safe
0.49134549197275695,-0.07968111607295328,9.975959223853945,-0.9933021042564933,-1.2599400637113793,0.6264764980014232,Safe
0.8327372222312883,-0.18529138120039143,11.277703103194234,1.8460896544535237,4.54818713828648,0.13186221715780097,Safe
0.5071850325090652,-0.6740235559700836,9.29603811749463,0.8121880376973342,1.8807393772465952,-5.31016403575898,Safe
-0.9204371156658226,-0.3573403384952159,8.954698322781743,-1.628306513195207,-3.0984048902956767,-2.7891190266521506,Safe
-0.6397884833678508,0.26063995250690725,9.61345489964927,-2.330403999930577,3.0084258013704592,0.20135100619786817,Safe
-0.3124092888478394,0.16083927068825005,9.026005867219867,-2.9206048704184453,2.386484550282863,1.232051417495343,Safe
0.013045525105416893,0.08402990298341012,9.063768864997003,0.3758835528655129,-0.5624249245765769,0.5793396242762814,Safe
0.2588295102345615,-0.4975742409266897,9.309342672901018,1.1449428235594716,0.6133938840596752,-1.7849299354313153,Safe
-0.3628719065767328,-0.09075158106783357,9.348905547284186,1.301931357558883,-0.02988815884214849,1.8748125649389913,Safe
0.09338338223853916,-1.0885325232214274,9.33269094902497,-0.23596218921475567,3.9451598088938646,2.964888057509273,Safe
-0.3776914661766613,0.08923833194269487,10.069109475222707,-2.313992911328728,-1.5925803779841807,1.8759792005826796,Safe
-0.3057589014959741,0.7144288539067837,9.556905469457332,-1.364149596047566,0.2920212195514539,1.9791986591809414,Safe
-0.7033305484241111,-0.7370660660210528,9.72024271256376,2.3046972779238515,-0.8562906619856094,-1.1184515959104218,Safe
-0.46161662305545215,-0.29296383665887765,10.257116387250468,-0.9692571292001627,-2.8660808092357084,2.1518682454015985,Safe
-0.6758423028081668,0.16455338935506478,9.426838737609287,0.2868352613629523,4.383276510109974,0.2915172786553145,Safe
-0.48793662648866637,0.6264213172137418,9.67772705064764,-2.151300967149775,-2.3631331582048247,1.0231110570440096,Safe
0.5268208983039198,-0.2241123081500747,9.992879993046458,0.6731660909180699,0.4402583749755518,0.7308636856494182,Safe
-0.4746994444159715,-0.3461251646329482,8.83921609968989,-0.9153691233581557,-3.481401212760671,-0.24297421088082205,Safe
1.3161910324186954,-0.9844615712080416,8.61754724552471,2.0934254275515274,-0.7981410784861865,-1.7200049502446038,Safe
0.2466589504404446,0.05171906465405319,9.983058664398861,1.5471154124136268,0.843937642866915,-0.16427332710809267,Safe
0.09241806184743695,1.021038020071872,10.05600714028345,-0.9914118931497994,-1.6494679590047254,1.9735232349656455,Safe
-0.4291788900906068,0.13867923098233795,10.842110067426205,-0.25332805469532677,1.17360370147131,-0.8829516106258192,Safe
0.3501549397044957,-0.011139489591856658,9.889047437933405,-1.1022324800812575,-0.5380821837761649,1.786694525216292,Safe
-0.28781891311888697,0.16104115538349273,10.219869858629048,-2.8388663930900195,2.3201650247972263,1.4741413412353437,Safe
0.06100490732268072,-0.00554600197430103,9.712263678207014,-1.7148848590944332,2.7235218266804466,-0.5978747940396606,Safe
1.2800422691343973,-0.4065071861300649,9.958613610792543,0.39643465544164025,-1.1734895214600234,2.7776002072391535,Safe
-0.048029949862324936,0.41163995783885265,10.643628420874768,0.6505189964591638,0.15346571878591367,-0.711093342381412,Safe
0.5746366631428379,0.1128807615558772,8.748003590937182,0.2970958071852778,0.3669084529444654,3.019093725225263,Safe
-0.3515882125629437,0.008806625966828657,10.01680812878584,-0.6034661079172715,1.238698590869397,0.868253963081945,Safe
-0.01749424524848085,-0.487683013639125,10.877793365038684,1.8661332114419706,0.028763992488531474,-0.031731836907027064,Safe
0.885400317817755,0.6517539659673796,9.951017109604672,0.12708380912187478,0.3804219186856844,-1.7756027606753075,Safe
-0.3134835288938837,0.33235137266655496,10.635286481616424,1.4065076561918946,-0.486812949590239,-0.17652046027008259,Safe
0.9062242789984644,-0.276460418683651,9.495393925235279,-3.547550264405037,0.23047973394403662,-0.40751902698884057,Safe
0.3538759677277377,0.5009124268409686,9.793976252918144,-7.8448005032366845,2.595880387070265,-2.516592770501811,Safe
-0.2812333879471338,-0.24878541919260358,9.826762351194294,0.5675760556761602,1.2921664824237087,-0.43523084543533425,Safe
0.3162038695277605,-0.3910017462555185,8.701204460320614,-2.849531307442979,1.402511278886738,-1.6076063601941715,Safe
0.48627722481336494,-0.37985155874014354,9.2259110860749,-0.42490340542611205,1.4461406482711565,1.1719835379575636,Safe
0.3109049811085982,-0.8855342765440456,9.261562460308008,-0.6041940820492113,-0.307617555762071,2.612560951456406,Safe
-0.7851123599452282,0.23577119020910287,10.221033039016264,3.174801204831074,0.6376540871590608,-2.4538313525904814,Safe
-0.3635685879124343,-0.9155724391691751,10.246076552842029,0.7999931058872128,-2.1703473566714893,3.424615456733845,Safe
-0.12375931777575237,-0.6142219156328813,9.972018221353267,0.33171805359734546,2.537615312633914,-0.2571020687702595,Safe
-0.03721671455002314,-1.0377940045392666,10.222051448427854,1.6739823092673474,-5.565920864686441,-1.9500427698770284,Safe
0.310336048775339,-0.04303484639544653,9.727925293639114,0.7369951736780775,-0.17429678467085036,1.5155095604163666,Safe
0.08885050046662692,-0.07516023013593603,10.410965834769772,-0.9153539859768661,2.2817919543005485,-0.892908956510096,Safe
-0.6676721793550506,-0.16334810659318202,9.814394221316036,2.1429518605091196,-2.727735867258683,-0.16347335206298835,Safe
0.1900989255029816,-0.5212888473352881,9.83893202371338,-2.2195002557765484,0.7995598352337022,-0.8085564884241578,Safe
0.3052928726419116,-0.58611687671832,9.677203683368795,0.6464943750671245,-1.3615328931580537,-1.6334758637298001,Safe
0.2798952239655199,0.23218493177328708,10.152225238818215,-3.0951395882726223,-0.7376065303777374,1.4479940648038074,Safe
0.5403903627773109,-0.27527596585424385,9.599400591693543,0.40788771503199006,1.8918819212788756,-0.5726028057883744,Safe
0.41696107727445203,0.15817916076807237,10.298215688599035,0.385979283545859,0.3961138517703004,-2.8733035843584918,Safe
0.22959003961421834,-0.44262434306211124,9.243925429641997,3.3529099238293254,-4.0687117357687255,1.1021202484318655,Safe
-0.035082855729323514,0.09053137138554117,9.260541872635903,-3.129947786883559,-1.9528510794631968,-2.4111647020475107,Safe
-0.8304804667579957,0.6516390186580319,10.153713377563253,-1.2017743517076251,1.9506714697775192,-2.3065203453505174,Safe
0.21480910956629293,0.29308290019639166,9.765727892708494,1.6453648531482876,0.8978854363859952,2.385212409954632,Safe
0.10384384358155557,-0.2062069091082402,9.583054291923437,0.6706345127946155,3.496271145048569,-2.3926797984204238,Safe
0.13578941859768673,0.12859948517796368,10.25502886623773,0.3606101026750061,3.3652951880265944,-4.632889713854981,Safe
-0.6383742879101547,-0.12033258726510651,9.506369292956958,-1.9122714059170784,-0.6844902602935836,1.2457229699229913,Safe
-0.5405282702041312,0.003940092347364076,9.709899372849815,-1.1816366961828584,5.006475610138977,-0.6077268589622606,Safe
0.5265764266664518,-0.1628055260742518,10.509613975035581,2.490082016446513,0.04895933970382152,-0.43531024227623283,Safe
-0.01977757692832752,-0.0821676029426956,10.579571172905325,-0.10301838750785591,-1.925337068818051,-0.6290007867004,Safe
0.3407503486863122,0.10604667653708762,10.596199105135163,0.7507193922889466,-1.2672797318211546,0.4633398780374536,Safe
0.014159188065230586,-0.49667934979097533,9.668937111533046,-0.230376657552958,-4.513450210578838,-1.5054384838061359,Safe
0.014878069747872594,-0.5079394134949892,10.425351452492235,-2.3661710304995305,3.214038016498562,2.952229749131529,Safe
0.46914190298799885,-0.6942712769156055,9.335523586115661,1.8676208521499933,3.189523978087727,-2.952460960618797,Safe
-0.25802236410868695,-0.800135552251855,9.35654856263897,1.0064647690649926,-2.031014877626642,0.8897498333542462,Safe
0.04806038847049168,-0.6086413461102397,8.63477207368782,4.611273674734378,-0.45576857676381183,1.2842420077531678,Safe
-0.23113764435252124,0.07973125340206459,10.646434100949266,-2.03116275930109,0.1912150882251552,-1.5193035216667559,Safe
-0.2172481137161578,-0.44639375774594203,9.378010075461962,1.645145842400961,-1.9207061042842275,-2.0474688905556366,Safe
-0.15458606173431969,0.2568072321155481,9.74673371012647,-2.6230879320740024,-3.510204062542323,2.0343484283403126,Safe
0.11106688581685642,0.01735687437628093,9.354837829035858,0.31469313534615534,-0.42071520755382363,-1.9817215080334298,Safe
-0.23937431083173866,-0.9842521067190269,10.157582624165071,1.9530131781263291,-0.6421588589184937,-1.2133278815011337,Safe
0.6278780627867604,0.3274877921108449,9.62218316964133,-4.144270232192974,-0.7768224819775503,1.7746179249194927,Safe
-0.44730365110975195,0.40539932279585494,9.157591554783526,-0.40986494848321575,0.44543212520192926,0.06948246707804843,Safe
-0.09343582208067952,-0.4969313374174267,10.03083128209303,-1.1264194680852406,2.8590393170519843,-3.594287335258209,Safe
-0.21986552913708746,0.2100957714474958,9.093134987594887,-1.4039145965902438,-0.6061854393834522,3.4941182891070284,Safe
0.7234889421768664,-0.4282491187045995,9.391297137342255,0.7704253045187084,0.3408859974427257,-1.060021517559932,Safe
0.09827738825578732,0.0488351883741677,8.75655544268696,2.2413714128451905,1.453741047489872,-0.8055145798128346,Safe
0.5159222697343174,-0.6322492034774828,9.098020943901197,-0.266557430458311,1.1082858530254975,0.5115685046527306,Safe
-0.742780186518486,-0.8965532262672884,9.899264584860239,0.41097285512004034,-1.228847048895684,1.2501535940081456,Safe
0.13352513293462942,-0.19140859480648434,8.827731980948538,0.22861750611849552,0.19275424622807175,3.922208582582934,Safe
0.4448153978117185,-0.06186447313741807,9.069427137689143,0.003607012712828353,1.0950796403381067,-3.3201362988113927,Safe
0.04114199463771209,-0.19883984680730202,9.808815541933596,-2.1786852754242125,-2.2567026750215553,1.6519044178518916,Safe
0.5327401875326756,-0.5920152791112797,9.538196551953474,2.2168892034457857,2.527078021593016,1.486019388100154,Safe
-0.2586442250501861,-0.19994953106556854,10.806018317979655,0.590390736317672,2.863177810428222,-0.2743298217482334,Safe
0.70467372009279,0.134647376290367,10.726948273012189,0.7897629800051553,-1.4455605108889875,1.5745473896324447,Safe
1.1494490618096251,-0.02244651506126849,9.376038768624424,-1.6130192580511644,0.3873400366963374,1.8685480352730937,Safe
-0.18141928021982953,0.0912505152996067,10.08856880920174,-0.9184407959784812,1.2845565133420633,-2.763925569974009,Safe
-0.2227512607003859,-0.33505760022711645,10.184641278439726,-0.35226839542155675,-1.0912283126575053,3.4995330117616605,Safe
0.7266922385588505,0.5858589573580798,9.5112605709878,-3.068249386897703,0.9632276913761889,-3.1175245062762835,Safe
0.7897860728653562,-0.5880866682773903,9.062229231750898,-3.3760686503953563,0.32651125258433084,-2.2706325624775463,Safe
-0.26143001357663415,0.2437801485433593,9.803850775345971,-1.2014958612771356,-2.9358363552776017,-0.5235753472481925,Safe
-0.21009340854792863,0.5909455464799808,9.723577162592946,1.04504153288478,0.9183226319571162,3.849881026374113,Safe
-0.1408923044302536,0.2404540463744477,9.59211775151469,-1.3062747798598817,-2.2002848325420716,-0.6165132595067729,Safe
-0.6722252555171385,-0.10126211353241502,10.031158434082244,-2.037610395181427,1.8784057033240944,-0.06386778010162134,Safe
-0.4593259732420991,-0.2641485233314896,9.4346351964972,-1.6293713064753403,-1.3424221502677776,2.864157207809127,Safe
-0.5020703833760339,0.518043825523128,9.23400122621043,-0.9106848462906252,-0.3225708673222901,-0.6006362851309455,Safe
-0.3838987825520642,-0.7114874626308365,9.864541485174916,-0.7077179256402075,2.74455782689315,-2.3568734258613513,Safe
-0.01734244369339059,-0.4850621301898218,10.002985046284438,4.331042904413113,0.9927632930576904,-0.834469670476629,Safe
0.11710736626826038,-0.1987788827458607,9.221677528049973,2.1092412569746366,-2.1589478391490906,2.741583667611555,Safe
0.7752502464070384,0.6188268787559991,10.274045305495541,2.049548224563456,-2.0298331415981674,0.14172999411027296,Safe
-0.4991770203693955,0.18988381802044801,8.924759431111962,2.337160728546763,-1.1986055772474509,3.8613165181125195,Safe
0.4921611992382919,-0.48402287925512266,9.520943270642178,-1.997641738668099,0.7892881667133321,1.4758698525243104,Safe
-0.10699442211275448,-0.15515385269245183,9.680995731901197,-2.4447292299744783,0.7165996298655363,-1.2896178727869667,Safe
-0.024731854826216475,-0.3071615720481472,9.491888143674036,-2.2137405830681134,-1.6862046093257383,0.10215260893015668,Safe
0.3374097460833019,-0.35489449611676754,9.527469763224405,2.6690122666756757,-2.334418971228718,-1.706436236283759,Safe
-0.5613610107811493,0.4894447792783896,10.745537241154057,-1.094383577764982,0.5631668101716685,-1.33686606129754,Safe
0.1912048730920253,-0.6858715646317528,9.38455795548055,-2.502712364478574,-0.36372013158032385,8.958168502051514,Safe
0.08322610410652805,0.8043904278671867,11.030610861235957,-0.861992400439626,4.314431774895475,2.037249020067622,Safe
0.24622563200407455,0.4141148450923114,10.028563389865527,-0.47721106342925484,0.0732073131261579,1.7221959780133462,Safe
0.14458432195390905,0.545430835301849,9.856027568655996,0.5368265473891243,3.6285056554005495,-1.246360630616128,Safe
1.2276500699554471,-0.23146975601262915,10.048120176693834,0.501902041424086,-2.34076719620868,3.139168132562158,Safe
-0.318869992125658,-0.07497035953955468,11.074963874625977,-1.6563611277470163,-3.1464258791234143,2.198831203585874,Safe
-0.2654984775009088,-0.716575907262356,9.313203498034277,1.3713127850274218,-2.240170265051069,3.7632425787155417,Safe
-0.3115702632123822,-0.2623312035334015,9.249791040531806,-1.2783870675003162,2.3782595629069325,3.6662282967968984,Safe
-0.27773855958012733,0.24682742382157544,9.43256690171404,-0.3125526734100861,3.512203179387068,-2.958178576195044,Safe
-0.31869356365325885,0.6480315308906981,9.826071573482281,1.37354814100671,-1.564358907905268,-2.2196789785398146,Safe
0.5945082655537759,-0.5535784084012259,8.947114437593713,-1.2836428078886828,-0.9211320595191151,-2.0075756309272728,Safe
0.7102521239949274,-0.18275296849263292,9.821169619659305,-1.138702847162275,-2.3379618204249994,-1.887881286664874,Safe
-0.28537314687473814,-0.07564961011626116,10.656773566706837,1.183336099386262,-3.6232796942367744,0.6469047285207808,Safe
-0.41617778655211435,-0.6978946010962426,9.885703695312388,-1.715466353210039,1.4368233955532594,-1.1336069041916352,Safe
0.23570777819320204,0.29567462087920016,9.663657270512362,-0.7695840472081413,0.44604060592432626,4.145197081525037,Safe
-0.2761115221404856,-0.36199516587130454,9.500919775658186,1.111484356085785,0.020975965347750886,3.8093597641632755,Safe
0.3164659088777554,-0.09769517558851198,10.259255852275782,4.10818488287195,-2.80011307432676,-0.012923188158079534,Safe
0.10146151042564985,-0.22597468595593884,9.397083613380977,1.2108090095254933,3.2799133636573212,3.9106524322995804,Safe
-0.757872057498616,-0.39466925285983717,10.733197960299625,0.9452795259800233,-1.0067134760989462,2.9762692544804037,Safe
0.7737526006650308,-0.0035224927402773497,10.776679873857178,1.0616031673454591,1.0672528496329516,-0.9014131183545178,Safe
0.8979388365477609,-0.10780478928401119,9.938375399330894,-2.1463805481340987,-2.909122810489449,-4.018430688051123,Safe
-0.3063943452421931,-0.18592894113933278,9.804242455961678,0.231193477359816,-0.38105037924007473,-0.4359367699214587,Safe
-0.19385077996799208,-0.3642308108401714,10.32532990412078,-0.059532976672803495,0.5827489124771678,-1.289244262156946,Safe
0.14293269536245248,0.15976233539147772,10.357399251113662,0.6431690807455123,0.6541504361066152,0.41301125029166075,Safe
0.1672283949935125,0.8268086342461425,9.407004134470293,0.23301610495174166,0.30929708647325016,0.17845657374949822,Safe
0.3292721363364152,0.06994361641956369,9.546722433431649,0.7593993548342249,0.9890449840975452,0.1260353177984571,Safe
1.0051022693831748,0.4980591074555645,9.148826282658353,-0.6229343897984031,-2.2610409120659223,1.047369482758329,Safe
-0.0884736137470247,-0.6951109625767313,10.01453246916703,0.11721783474358545,0.3947452108793201,-2.425043894167357,Safe
-0.39914862226922687,0.07888071964688474,10.143313941728445,-2.455657132113984,0.22751536696055474,0.8227205551394156,Safe
-0.6896596140072636,-0.5486841594855333,9.135037181069364,-0.6398145560058276,0.4633453683901217,-0.8792323060340121,Safe
-0.36546501997095954,-0.7384624637659507,9.58240054759192,2.781667096353287,0.14469043463836356,0.399964399727374,Safe
-0.016563486436898547,-0.36968570372951814,9.136373041209326,0.6376166792565118,-2.546425547826795,1.9148196904643797,Safe
0.8972789317588938,0.5959496672067864,9.360600094878082,-0.041842074766153765,-2.6355995042179474,-2.4487995464420593,Safe
-0.2588056495180857,0.4750079143348228,10.08550853011315,3.7922465525086935,-4.428536371769103,-0.5625873053391388,Safe
0.11189397581944925,0.12150236102719984,9.44325896666086,-2.7216699566021583,1.6350690196905953,-0.23706846805772835,Safe
-0.008211448036376037,-0.7663502799449654,9.659587021983851,-2.2189111108924395,1.6553150194703974,-1.0285379431412818,Safe
0.594196636724042,-0.0981403256939684,8.996344136026343,3.4254228225525454,1.6871005824442407,1.7996589922659145,Safe
1.2634662129368108,0.15085000445086777,9.903495104862333,0.09192187209786766,0.6135799249229036,-1.4407767176009432,Safe
-0.2654343864601603,0.08776811478929895,9.787863340077676,-0.48516607257958755,-4.266238435436222,-1.1108007988846775,Safe
-0.24471972125911107,-0.9218967917403729,9.445520374983419,-2.3984086501912865,-2.053420983570532,-1.419838265904129,Safe
0.522080438534536,-0.4451589240099359,9.715492851158764,0.8953925327900237,0.34083083518622387,2.1841108228776034,Safe
0.3409457448131557,-0.032038882074358316,9.900147440251724,1.0889197390549246,0.27103600558359087,-0.9848882248244335,Safe
0.9233536628680168,0.26814545475859497,9.402565925545328,-2.1889887216697925,-0.4454964263040424,0.9200907817671125,Safe
0.29196409266298196,-1.0980639105499732,9.07186872799911,-0.28055117110085664,0.7378344058164934,3.9514102024601483,Safe
-0.17964604539352977,-0.08106198773992922,10.712787216343408,-0.6710316640661321,0.023303415370491132,-0.14963684070117064,Safe
0.29532741534615464,0.07152438493947617,9.493363647644864,0.5119542928375421,0.24154093110272337,2.224121360066315,Safe
0.5543517902914539,0.42480599425810656,9.761619948406556,-2.2385004844412877,-1.2781306656640323,3.342708168186256,Safe
0.410241090598682,0.34642879211871835,10.315419867510156,2.5038949090263145,1.9640219722431804,2.0543831200808276,Safe
0.25363701555364887,0.2912856594044026,11.574527593785243,1.8316475631952085,-0.8615432173607681,-0.033602631955480834,Safe
0.533337344794577,-0.3999702533509671,9.187756775055568,-0.7263511174656323,-2.6612981660412527,1.284215517997227,Safe
0.5846477952228364,-0.9540010685616538,10.034913606863256,-0.4328374232767424,-1.5419980256374572,-2.574757186270691,Safe
0.6910794955187636,-0.19652637853070049,9.456223857352947,-0.27284430055523207,-0.6969323827239606,-1.560086316299904,Safe
0.3243549437948213,0.50081591260428,9.540604847711645,-1.5566171060130067,1.9880055767376934,-1.209350363263838,Safe
-0.08355904015842718,0.6967272637622157,9.449893989496605,-0.8868588364700714,-0.08453599686958607,4.481224240348564,Safe
0.07335684321666142,0.35527455114889267,9.247172516099708,-0.5405407353492181,-0.372296437931298,-1.625169028510534,Safe
0.6032544832541784,0.21467041140086718,9.78935431910767,3.225736741414256,-2.4973268495252547,-1.6549535025236592,Safe
-0.40846783549361804,0.18981982419298274,9.072748656475882,1.8932366166608734,1.5709651796591526,-2.087841960497967,Safe
0.1843366544364506,-0.2780593733803903,10.283403783255936,1.8693094146732472,-1.3039043080467714,1.1196235238615218,Safe
-0.19666940616368034,-0.06503014677681002,9.837501468016688,0.7398512260087806,-0.20005571788267185,0.28524278533776565,Safe
0.014372411467408744,0.8345347629131655,10.02121748645072,-2.234654017862469,2.9603661537637294,2.1735179540531298,Safe
0.6392259313036494,-0.47127900289593816,9.57690569402689,-0.08298220915475847,1.017526662098609,1.3425193321547086,Safe
0.09554953400995167,0.8073893953549257,9.626398032894127,1.9409769192267599,-3.2565080954303487,-2.760779693448135,Safe
0.023218274078074405,-0.1610140772460292,9.953781952583665,-2.516529258734576,-3.5390204727049444,-1.6145555400207414,Safe
-0.6799280704899596,0.6627160545475392,9.227974683797088,1.2731064137465287,-0.1286209002384921,2.730657496551643,Safe
0.37312678301361035,-0.7034075047487691,9.631004782793333,4.645218450525532,-2.42548122974961,-0.40659648915361,Safe
0.3227420905705377,0.29295210058232457,9.380193243060774,2.1236332919794636,1.2970934952659956,2.3751836360360254,Safe
1.08162736165273,-0.368385067973811,9.364715594704494,2.828058271123975,0.08452612992995838,-0.2993618958306341,Safe
-0.15388911747650041,-0.7076335959620937,8.75508087968718,0.4366775008843214,0.33076953804772596,-1.9353128565770428,Safe
0.10957516383196948,0.10926702120547284,10.47966329474,1.9358638975299796,-1.4134863632847061,-0.6065215553334122,Safe
0.12469184185537763,0.5047358942979844,9.466730623423116,-1.435706428708071,3.4827673105734114,-1.9360995910993921,Safe
0.7887266398817372,-0.4224707192967482,10.391688027581775,1.5917276246824528,5.685187456020919,-1.1311055248048476,Safe
-0.04764776619347605,-0.7495079802292006,10.344396160697146,1.3087762681215265,-0.5571694475134294,0.40185141313049194,Safe
0.13951076288516961,-0.045922382167477564,9.167000146741753,0.5798223480753258,0.7060784968300019,1.023210180738041,Safe
0.3039482548582696,-0.04371766438859054,9.265794382163577,2.6320148394369967,0.19483468612862517,-3.1803826465085963,Safe
0.09330456157817905,0.27415981377724935,11.090251479677843,-1.0775696756947772,-0.5193737268821373,-0.03473601501819634,Safe
-0.22321680727526413,0.4747972856822441,10.685462970963572,-0.37411503294732523,-1.6641409354655934,-1.1732314711195049,Safe
0.09704499644915379,-0.029707590636247047,9.794240743335948,0.19092408271659314,-2.1699359749609544,-1.2968296179176249,Safe
0.536815874929886,0.9277516573971315,9.938686553208676,-2.059221942178801,-2.2711945310510484,0.26536923826615366,Safe
-0.5132576497055301,0.11211737226764588,9.494576798526406,0.45386388760049573,0.8104800510982909,-1.100903745378424,Safe
0.066484837073438,-0.1732132530034498,10.026176357100171,-3.437860825907694,-1.0393489564072707,2.764275989693348,Safe
-0.3500604074695866,-0.805783679551414,9.451409049638764,2.0939090688564184,-5.1565857002810604,2.3761237525021204,Safe
0.5975233144624212,-0.13132976015808387,8.793823117850808,0.09327473313193149,0.8897164411966447,2.363656587884079,Safe
-0.7615934523918874,-0.16819347270556811,9.149222106744475,-1.0417858078075266,-0.07652256492831173,-0.9898203909806037,Safe
-0.27946092363579417,0.4801523981407352,9.820546373925295,-1.668747224590243,2.693346002802292,-1.9249976698386446,Safe
0.18860593753226043,0.23124181203342703,9.244466382248707,-0.46915805923837517,0.7462447941820186,0.16405985877623105,Safe
0.7827620146171702,-0.5896845608163086,9.776361267543233,1.376519421544827,-2.9573471926205945,-0.3006967325725344,Safe
-0.0328751305364939,0.08612719320551875,9.272669480283568,1.0954779574751212,-4.459353281459962,-1.2176463248467297,Safe
-0.2775997633465992,0.3357655858645267,9.418823038749004,-1.411075894556922,-1.4389447686758747,-2.351468893333923,Safe
0.9405785347202951,0.7640156796939164,10.236582653206597,-1.692079345255269,-1.2502148413873053,-0.08303593853614313,Safe
-0.724006950208122,0.4437519837070297,9.933740273820053,1.3137974126392948,1.8863184020003334,-0.8081389005049466,Safe
-1.099402978310041,0.3804233271557389,9.805167789343328,-1.4446948092300589,-0.017741864579146786,1.3766940740760394,Safe
0.2200072250266662,0.030042997307581806,10.249481986535326,0.11981954815900712,2.267376996197018,1.3302121030429588,Safe
-0.2510271121763056,0.1941560027117248,10.050304296673675,0.24750928504855413,-2.6496661114052693,2.201599610845434,Safe
-0.5106164085653566,0.6247524503530794,10.533281645625685,0.6241242634534768,1.930528768760896,-2.5185911037600763,Safe
0.35417822364967666,-0.6663886987398249,9.58007036884243,1.7165408603637435,1.441978306861839,0.8021166153872653,Safe
0.12190035688559941,-0.17471966360847796,9.595182510736246,-2.5259258737346455,-4.036468222862393,-1.4549314124673443,Safe
-0.2820393153683642,-0.38628437437812035,9.159445366804327,-3.8223186505209754,2.6452356825215446,-2.4408284216221694,Safe
-0.6401521993354472,0.18957655936306206,9.595509641313791,-1.1348945624567033,0.18691698353270547,-0.8572044738974202,Safe
0.43622866414007233,0.6151110878253938,10.292384947151223,3.603056815664372,0.7840890077370114,2.1374099602692356,Safe
0.3251005889793305,-0.29848714336053694,10.459993686131067,4.044348200174757,-1.7297922248568454,-0.7446367071409684,Safe
-0.049587931889691454,-1.195152183734719,10.290152584043334,3.662354271131775,2.550494025843945,3.1309093199182243,Safe
0.9233184980238329,-0.20611037251223507,8.912904066725282,-0.3859627355213792,-2.3717046584777397,1.097757031040667,Safe
-0.5350423831630763,0.4567368660087033,10.351572606330368,-3.5642301639696576,1.664184036747892,-0.788180957961154,Safe
-0.7627625854623694,0.26881495147493983,8.890740688363966,-4.686078203303682,1.6412149518173424,2.320096857812817,Safe
-0.3459540349406222,0.21409312390528806,10.259058662061173,-1.2280763230988223,-1.9483348563444443,0.8907935442285714,Safe
-0.022793008177748902,-0.13999665093723987,9.626107736714474,-0.3961472602987203,3.966747198845148,-1.8651187768934108,Safe
0.12166972466134592,-0.6395153681098932,10.161266656966928,2.6012508021119176,0.4630569604350384,3.7176052711610303,Safe
-0.12061802892816494,0.2576471608122337,9.143775826052718,1.7356109190848914,1.3077852205420484,0.5189576461729531,Safe
0.1760276982571484,-0.4171409050173124,10.395583816353074,0.4548101579832412,-3.0542415906715115,0.037592383970983655,Safe
-0.625769712095222,1.092048366690228,9.077512626947556,-1.7796895418822833,4.23546000601713,-1.7110653398112319,Safe
0.7218823020366297,0.285253604177258,9.475772544573411,-1.9215591164897805,-2.4491138804501795,2.3590765352154763,Safe
-0.0410755891962844,-0.29032415127697553,9.310952686115483,0.5082553741428708,2.0497728655318608,1.034550854722613,Safe
0.5586479157940638,-0.3056926236943141,8.932857573588752,1.394101957679453,-1.9895434358633908,1.2584763605904818,Safe
0.17136267318885207,-0.04647210330679414,9.857263783794235,0.7837625244911691,-1.2379776056953653,-1.015062687051537,Safe
0.22837660957689196,-0.11975096101087489,10.713044558918481,-2.0691959192133096,1.5775080877708942,1.6682011438201367,Safe
0.28488364011610195,0.5584168877649771,11.143452611160004,1.3013352575841723,2.0551054273503144,1.8236271871416034,Safe
0.22385428000865748,0.09320808487202316,9.858577893543124,0.8518219342028228,-2.542568498228204,-1.337556477562245,Safe
0.32136137993377195,-0.36581586945426403,10.368340637533763,-2.1413328123803566,2.1809443381139877,-2.833980279361982,Safe
0.6645762650662157,0.9452203425778913,9.926047318964269,-1.5686419406005114,2.089960990266388,1.162746118677848,Safe
0.09826058485073506,0.024654165760111316,10.059441597384106,1.376991949123133,-1.8759068176897848,-3.1466938992114795,Safe
0.35450187879425615,0.3844198379844484,9.638925674436381,-0.4690150702917819,3.1972951871822204,0.3040315556755587,Safe
-0.04486784714361336,-0.30411325372237963,9.907538462711301,3.1782946032729145,-2.913715256496076,-0.8944902095746142,Safe
0.7200586077247364,0.1815578138722617,10.078739352303215,1.0022585521291527,-1.2495451655552308,2.437330421577842,Safe
-0.33819615102963485,0.1555549955715976,9.520770135561834,-0.9732623763785383,0.9580052481839775,-0.7856877815344145,Safe
0.9004702164554078,-0.9448246460480765,9.771252850053507,-0.02041120078186536,-1.7071325694052129,2.2145459440076083,Safe
-0.020078975322171705,1.00763755523032,9.780784940501256,0.12676678527543633,0.527638171358682,-1.0284188887260524,Safe
-0.7153875510590241,0.6453222304612736,10.223201658665262,-1.45678062648342,0.48215215760659036,1.999982010119222,Safe
0.06405220745539464,-0.19859765807299382,9.276983914186161,-1.8251763963552532,-0.37414853984544116,4.1206830876736635,Safe
-0.3405258287374404,-0.5511348702279277,9.784228895696176,1.4027797876189987,1.6648010771811192,-2.136094276732481,Safe
0.42032177449436203,0.173780806901776,10.76600273452635,1.6905465940841913,-0.45672158531527834,0.5840714434618159,Safe
-0.32631198965119546,0.04334884970719829,10.392030076292968,1.2075629391059173,0.4630821376276113,5.49756483182013,Safe
-0.22309171660738986,0.1778344742816147,10.484589524444353,3.0306361886476036,2.292943754975805,0.13317765380584337,Safe
-0.9447703654727655,0.09578869809704481,9.822215920089018,-1.0835464720232038,1.5813724200516808,0.12357654045929653,Safe
-0.22615315962453836,0.25312049465296305,9.970498781843013,3.3485415321422605,1.5720345816284171,1.5769978947020393,Safe
-1.2119396633144783,0.7236528496959033,10.311118083351463,-1.8018422371083056,-2.2983592044335603,0.08216172818950834,Safe
-0.7919514117428617,0.28405160256432305,10.590127764765466,-2.0253711267369856,1.0495851510026435,-3.414451989141105,Safe
0.3802073280721487,-0.5248277494549706,8.834198543558557,-3.5199177642985005,-1.7569975819390096,2.264574749677877,Safe
0.3929000793254161,0.681281426356226,9.152279346475078,-0.8915906276536341,-2.5628299595560526,-4.0058968277303855,Safe
0.21272878089248237,0.8203072817441437,10.464722050701324,-1.0074446736589073,-0.14341269256993672,-0.8335833022766836,Safe
-0.4834880715646065,1.5760283672560425,9.671555322115598,1.051874560509301,-1.8085903733031796,2.4148514983132965,Safe
-0.023855678070989927,-0.561747016619799,9.474139605370961,0.4877818832409019,1.5812354376799544,-0.7130848572855715,Safe
-0.0018012695452842022,0.1214410065751375,9.182919506502198,-2.3859467420382736,1.6290709193906483,-1.3873929849288082,Safe
-0.5791823445962714,-1.0410493515944936,9.532491649227946,-0.7854524768516351,-3.805252472862884,1.7585278103331212,Safe
0.7516991508835753,0.27657457818960457,9.108815358288089,-0.7429240421753709,-1.65660507915378,-1.7022295736687731,Safe
0.4386811452878357,-0.2741001490833863,10.855547136366239,-3.5519644939237853,-2.9195733438359976,-2.4444514391839074,Safe
-0.11048208691483197,0.9617228974124766,9.798781974009714,-1.961893454026739,-0.9252585531857813,0.5490279749865667,Safe
0.01344291949726539,-0.38730748500929096,9.781024729118641,-1.5416272612281787,0.9103513397376487,-0.36584659682518184,Safe
0.10419140397377624,-0.8445915189836308,10.104038337583916,2.8672500396418927,-0.4845761963567766,-2.487346228377684,Safe
